sim_time,acc_x,acc_y,acc_z,gyro_x,gyro_y,gyro_z,roll_gt,pitch_gt,yaw_gt
0.002,1.2231025818801094e-15,-2.9909453595446477e-16,1.2529988641832208e-15,0.0,0.0,0.0,-0.2343182195006572,-0.7594815226817732,-0.09371872205398865
0.004,8.202243544737017e-16,-2.0057613136039744e-16,1.1520000000840275e-05,2.9899980230403353e-23,-1.5655895771208691e-22,-2.485357105125004e-24,-0.2343182195006572,-0.7594815226817732,-0.09371872205398865
0.006,2.0577920064549643e-15,-5.032104155025183e-16,4.60800000021081e-05,1.4949990115201674e-22,-7.827947885604345e-22,-1.242678552562496e-23,-0.2343182195006572,-0.7594815226817732,-0.09371872205398865
0.008,-1.1797000550907433e-15,2.8847570491229158e-16,0.00010367999999879148,4.766391297246742e-22,-2.0616191678409537e-21,-8.089876178802176e-23,-0.2343182195006572,-0.7594815226817732,-0.09371872205398865
0.01,2.115657909279589e-15,-5.173711123147157e-16,0.0001843200000021674,9.550388134111279e-22,-4.566562491234344e-21,-1.2066447547002163e-22,-0.2343182195006572,-0.7594815226817732,-0.09371872205398865
0.012,-2.8706963021984944e-16,7.023597198632658e-17,0.0002879999999997058,2.4892546667604653e-21,-8.42923131941444e-21,-5.122638867147588e-24,-0.2343182195006572,-0.7594815226817732,-0.09371872205398865
0.014,3.8429817054291826e-15,-9.39745785528967e-16,0.00041472000000393683,3.797811581051096e-21,-1.3544528836536516e-20,-2.7901054391673394e-22,-0.2343182195006572,-0.7594815226817732,-0.09371872205398865
0.016,-1.713039432527097e-16,4.189086143940868e-17,0.0005644799999998244,6.834664282894047e-21,-2.0826207313699308e-20,2.4181985789362776e-23,-0.2343182195006572,-0.7594815226817732,-0.09371872205398865
0.018000000000000002,4.793366224775664e-15,-1.1722122838370153e-15,0.0007372800000049107,8.74826301763986e-21,-3.0845980607272874e-20,-1.3488086893863973e-22,-0.2343182195006572,-0.7594815226817732,-0.09371872205398865
0.02,1.6136180933101762e-15,-3.9451406551316293e-16,0.0009331200000016534,1.2132049949768018e-20,-4.217471574058242e-20,-1.2155873474096851e-21,-0.2343182195006572,-0.7594815226817732,-0.09371872205398865
0.022,-1.1486037815311434e-15,2.8088967783668206e-16,0.0011519999999988237,1.6252235449970662e-20,-5.665751473883393e-20,-9.850108777323346e-22,-0.2343182195006572,-0.7594815226817732,-0.09371872205398865
0.024,-3.4937330806172895e-15,8.544055220272018e-16,0.0013939199999964216,2.5267186894676792e-20,-7.550518400268079e-20,-1.0405098924596147e-21,-0.2343182195006572,-0.7594815226817732,-0.09371872205398865
0.026000000000000002,-4.198030811863873e-15,1.027010507886894e-15,0.0016588799999956998,2.9347016403014224e-20,-9.909400402340714e-20,-1.9355064539183997e-21,-0.2343182195006572,-0.7594815226817732,-0.09371872205398865
0.028,-4.485344387572532e-15,1.097321018772579e-15,0.0019468799999954058,3.34277155576072e-20,-1.2434921267418277e-19,-1.649099842030567e-21,-0.2343182195006572,-0.7594815226817732,-0.09371872205398865
0.03,5.429684479807406e-15,-1.3277139804257487e-15,0.0022579200000055633,4.301369802848302e-20,-1.561819130537308e-19,5.416512462757221e-22,-0.2343182195006572,-0.7594815226817732,-0.09371872205398865
0.032,-3.807934870203589e-15,9.31654926816794e-16,0.0025919999999961005,5.2976889265116453e-20,-1.9000574632354898e-19,-4.957102901153967e-22,-0.2343182195006572,-0.7594815226817732,-0.09371872205398865
0.034,6.940845467817702e-15,-1.6971558707001844e-15,0.0029491200000071145,6.294181979426099e-20,-2.271623568534658e-19,8.297345201867135e-22,-0.2343182195006572,-0.7594815226817732,-0.09371872205398865
0.036000000000000004,-2.38524477946811e-16,5.827586677109586e-17,0.003329279999999759,7.866118709351196e-20,-2.67780178025537e-19,-1.2429597384819669e-21,-0.2343182195006572,-0.7594815226817732,-0.09371872205398865
0.038,-5.7785807389132415e-15,1.4127154307486123e-15,0.0037324799999940853,8.951032975861681e-20,-3.17359245572981e-19,-1.9365629101896075e-21,-0.2343182195006572,-0.7594815226817732,-0.09371872205398865
0.04,7.446734201499439e-15,-1.820375447603162e-15,0.004158720000007634,1.086788161153463e-19,-3.743590918118798e-19,-2.2806734269634873e-21,-0.2343182195006572,-0.7594815226817732,-0.09371872205398865
0.042,1.5200514458246772e-15,-3.723150260315222e-16,0.0046080000000015605,1.3641927820254619e-19,-4.423289901758125e-19,-2.8521621408063683e-21,-0.2343182195006572,-0.7594815226817732,-0.09371872205398865
0.044,-1.5443375744883525e-15,3.778444571111983e-16,0.005080319999998422,1.507140613401073e-19,-5.016245282698869e-19,-6.5427942640056546e-21,-0.2343182195006572,-0.7594815226817732,-0.09371872205398865
0.046,-5.414071968523615e-15,1.3244613739082922e-15,0.005575679999994459,1.921493558307696e-19,-5.751525058170599e-19,-9.297623113881435e-21,-0.2343182195006572,-0.7594815226817732,-0.09371872205398865
0.048,1.0704544889383882e-14,-2.615746161338528e-15,0.006094080000010969,2.069563602160667e-19,-6.548776998186872e-19,-4.6907715543133764e-21,-0.2343182195006572,-0.7594815226817732,-0.09371872205398865
0.05,8.887422048298177e-15,-2.1738253558334364e-15,0.006635520000009117,2.171422934210412e-19,-7.404478591090695e-19,-4.0073124531735226e-21,-0.2343182195006572,-0.7594815226817732,-0.09371872205398865
0.052000000000000005,7.496607501433772e-15,-1.83100062889352e-15,0.0072000000000076855,2.547213700179627e-19,-8.437997312861294e-19,-2.9649209307129485e-21,-0.2343182195006572,-0.7594815226817732,-0.09371872205398865
0.054,-1.3051625752380502e-14,3.1919996160145736e-15,0.007787519999986637,2.9205129316106066e-19,-9.502678845498075e-19,3.379954137136954e-21,-0.2343182195006572,-0.7594815226817732,-0.09371872205398865
0.056,-1.2388527703688368e-14,3.0294777103589965e-15,0.008398079999987318,3.242548810461444e-19,-1.055482456235082e-18,6.955178450564176e-21,-0.2343182195006572,-0.7594815226817732,-0.09371872205398865
0.058,-1.1308662339892805e-14,2.7673176250520015e-15,0.009031679999988426,3.63097117837295e-19,-1.1765806955800379e-18,5.113215713010868e-21,-0.2343182195006572,-0.7594815226817732,-0.09371872205398865
0.06,-1.1036310754164447e-14,2.6985792073164205e-15,0.00968831999998871,4.019393546284455e-19,-1.297678934924994e-18,3.2712529754575126e-21,-0.2343182195006572,-0.7594815226817732,-0.09371872205398865
0.062,-7.892991815694472e-15,1.932048271369169e-15,0.010367999999991918,4.410342234584419e-19,-1.422326447703529e-18,8.524193859014431e-22,-0.2343182195006572,-0.7594815226817732,-0.09371872205398865
0.064,-5.567594996147562e-15,1.3587221625588342e-15,0.011070719999994316,4.803886814973284e-19,-1.563854342956038e-18,7.307940331115408e-21,-0.2343182195006572,-0.7594815226817732,-0.09371872205398865
0.066,-1.5872719805187785e-15,3.909633033982729e-16,0.011796479999998381,5.309993810375819e-19,-1.7087553860592763e-18,7.54405399039065e-21,-0.2343182195006572,-0.7594815226817732,-0.09371872205398865
0.068,2.796374243274613e-15,-6.845652517073475e-16,0.012545280000002886,5.8262756590326315e-19,-1.881184631937226e-18,1.4923909628427736e-20,-0.2343182195006572,-0.7594815226817732,-0.09371872205398865
0.07,7.602425633468357e-15,-1.8622256514611024e-15,0.013317120000007811,6.455189494403558e-19,-2.0703181347062997e-18,2.5535583367298847e-20,-0.2343182195006572,-0.7594815226817732,-0.09371872205398865
0.07200000000000001,1.4056464325840068e-14,-3.434535641999581e-15,0.014112000000014412,7.206631882941101e-19,-2.2503596609796303e-18,8.717915638674259e-21,-0.2343182195006572,-0.7594815226817732,-0.09371872205398865
0.074,-1.821633122123245e-14,4.4578056523914e-15,0.014929919999981351,7.835615290012472e-19,-2.4528242727890986e-18,2.878081476431836e-20,-0.2343182195006572,-0.7594815226817732,-0.09371872205398865
0.076,-1.0938298877771757e-14,2.675594121259728e-15,0.015770879999988816,8.377160342553864e-19,-2.66074625300284e-18,3.039196188232744e-20,-0.2343182195006572,-0.7594815226817732,-0.09371872205398865
0.078,-3.236994006172722e-15,7.975391180803371e-16,0.016634879999996702,8.513859930332372e-19,-2.9057314545776952e-18,3.704583742126862e-20,-0.2343182195006572,-0.7594815226817732,-0.09371872205398865
0.08,6.1010224650104306e-15,-1.4975000406369787e-15,0.017521920000006273,8.967966628343786e-19,-3.1191108031957104e-18,2.0205232531642875e-20,-0.2343182195006572,-0.7594815226817732,-0.09371872205398865
0.082,1.5862311464331924e-14,-3.8697343940352624e-15,0.01843200000001627,9.42719553883256e-19,-3.352919807721279e-18,1.1662111324784404e-20,-0.2343182195006572,-0.7594815226817732,-0.09371872205398865
0.084,-1.1889794704345036e-14,2.903493417916181e-15,0.01936511999998786,9.696528961331515e-19,-3.603010126534708e-18,-1.1420838011781263e-20,-0.2343182195006572,-0.7594815226817732,-0.09371872205398865
0.08600000000000001,-1.2836953722228372e-15,3.152859917587847e-16,0.0203212799999987,9.848247328039884e-19,-3.842628750630249e-18,-2.713063835840273e-20,-0.2343182195006572,-0.7594815226817732,-0.09371872205398865
0.088,9.72485980632598e-15,-2.375270119481243e-15,0.021300480000009978,1.0635336488817614e-18,-4.125684541135267e-18,-1.4219596467974514e-20,-0.2343182195006572,-0.7594815226817732,-0.09371872205398865
0.09,-1.5553530685608052e-14,3.805115944555126e-15,0.02230271999998411,1.144249706930212e-18,-4.410472301028129e-18,-2.4825972167114753e-20,-0.2343182195006572,-0.7594815226817732,-0.09371872205398865
0.092,-2.473715676742927e-15,6.123573870198129e-16,0.02332799999999749,1.2239691511633681e-18,-4.707725185267464e-18,-1.4222413684697968e-20,-0.2343182195006572,-0.7594815226817732,-0.09371872205398865
0.094,1.0987738496837096e-14,-2.6892550686330452e-15,0.024376320000011324,1.3272255208947306e-18,-5.052583677023363e-18,5.3729759137620525e-22,-0.2343182195006572,-0.7594815226817732,-0.09371872205398865
0.096,-1.3003487175922146e-14,3.1858196636314062e-15,0.025447679999986705,1.3689658675299232e-18,-5.382399189838419e-18,-1.793880018562179e-20,-0.2343182195006572,-0.7594815226817732,-0.09371872205398865
0.098,2.527492104498208e-15,-6.327403878625404e-16,0.026542080000002632,1.4127272704758824e-18,-5.74060889012211e-18,-4.102986477864207e-20,-0.2343182195006572,-0.7594815226817732,-0.09371872205398865
0.1,1.8480009189580926e-14,-4.519822016657571e-15,0.027659520000018995,1.495492213515277e-18,-6.107115273645184e-18,-1.844630574671226e-20,-0.2343182195006572,-0.7594815226817732,-0.09371872205398865
0.10200000000000001,-3.056582764671134e-15,7.446300520630444e-16,0.02879999999999693,1.5822853548361156e-18,-6.503747814024735e-18,-2.3995131120373576e-20,-0.2343182195006572,-0.7594815226817732,-0.09371872205398865
0.10400000000000001,1.3742479376688266e-14,-3.3731697990369014e-15,0.029963520000014128,1.712096320191745e-18,-6.912140976419361e-18,-3.0904168048221714e-20,-0.2343182195006572,-0.7594815226817732,-0.09371872205398865
0.106,-5.728056917675417e-15,1.4025239303272485e-15,0.03115007999999416,1.821401944515318e-18,-7.315519812500373e-18,-4.8891807993760574e-20,-0.2343182195006572,-0.7594815226817732,-0.09371872205398865
0.108,1.3100631690576847e-14,-3.217478367067983e-15,0.032359680000013505,1.93072148317898e-18,-7.745560866662174e-18,-4.7976997165753456e-20,-0.2343182195006572,-0.7594815226817732,-0.09371872205398865
0.11,-5.523359547510154e-15,1.3643600138557588e-15,0.03359231999999438,2.0605324485346093e-18,-8.153954029056797e-18,-5.488603409360102e-20,-0.2343182195006572,-0.7594815226817732,-0.09371872205398865
0.112,1.4151874117018792e-14,-3.4737837606435562e-15,0.034848000000014555,2.192364470201005e-18,-8.590741378920058e-18,-6.641003783747183e-20,-0.2343182195006572,-0.7594815226817732,-0.09371872205398865
0.114,-2.4424906541753444e-15,5.80265002714242e-16,0.03612671999999757,2.245220626545413e-18,-9.076724922812599e-18,-1.1026845310259211e-19,-0.2343182195006572,-0.7594815226817732,-0.09371872205398865
0.116,1.9297063946766002e-14,-4.719315216394904e-15,0.03742848000001986,2.299115139725382e-18,-9.630229996601036e-18,-1.1862945022863207e-19,-0.2343182195006572,-0.7594815226817732,-0.09371872205398865
0.11800000000000001,3.590877595271991e-15,-8.690964614643804e-16,0.03875328000000368,2.3909609218231366e-18,-1.0097848005652171e-17,-1.357156926423492e-19,-0.2343182195006572,-0.7594815226817732,-0.09371872205398865
0.12,2.6104118866498993e-14,-6.4124053289482674e-15,0.040101120000026864,2.42736776409711e-18,-1.0662267816249154e-17,-1.809801937836592e-19,-0.2343182195006572,-0.7594815226817732,-0.09371872205398865
0.122,1.2462253451417382e-14,-3.0531133177191805e-15,0.04147200000001278,2.6707934156420596e-18,-1.119857620512776e-17,-1.9568343465826874e-19,-0.2343182195006572,-0.7594815226817732,-0.09371872205398865
0.124,3.708144902248023e-14,-9.047450288957037e-15,0.042865920000038055,2.826190191486839e-18,-1.1736293598669162e-17,-1.652463840613906e-19,-0.2343182195006572,-0.7594815226817732,-0.09371872205398865
0.126,2.4206331383780366e-14,-5.904998712225051e-15,0.04428288000002489,2.817572067755344e-18,-1.2287220817863227e-17,-1.8563325605894512e-19,-0.2343182195006572,-0.7594815226817732,-0.09371872205398865
0.128,-2.615963001773025e-14,6.375108774214766e-15,0.04572287999997329,2.8620631352723827e-18,-1.2965217378334745e-17,-2.493576244643439e-19,-0.2343182195006572,-0.7594815226817732,-0.09371872205398865
0.13,-3.696695727306576e-14,9.054389182860945e-15,0.047185919999962245,3.0235230800494617e-18,-1.3588117334282048e-17,-2.32765474315532e-19,-0.2343182195006572,-0.7594815226817732,-0.09371872205398865
0.132,-9.42648736845797e-15,2.278559285695536e-15,0.048671999999990424,3.141979115131838e-18,-1.4225918886295067e-17,-1.9591066183898755e-19,-0.2343182195006572,-0.7594815226817732,-0.09371872205398865
0.134,-1.939073901446875e-14,4.739264536368637e-15,0.05018111999998021,3.2604351502142147e-18,-1.4863720438308087e-17,-1.5905584936244347e-19,-0.2343182195006572,-0.7594815226817732,-0.09371872205398865
0.136,8.989337052511814e-15,-2.2065682614424986e-15,0.05171328000000926,3.507958571741053e-18,-1.5563466074447115e-17,-1.0737922077491407e-19,-0.2343182195006572,-0.7594815226817732,-0.09371872205398865
0.138,-1.249000902703301e-16,4.163336342344337e-17,0.05326847999999988,3.759524105889424e-18,-1.6320000085523405e-17,-6.493252581942885e-20,-0.2343182195006572,-0.7594815226817732,-0.09371872205398865
0.14,3.146788385421928e-14,-7.692631254219151e-15,0.05484672000003236,3.925026163288035e-18,-1.6999688416407976e-17,-5.757030930266156e-20,-0.2343182195006572,-0.7594815226817732,-0.09371872205398865
0.14200000000000002,2.3203661214665772e-14,-5.663004787326287e-15,0.05644800000002382,4.092577105677591e-18,-1.776109537092276e-17,-1.7018158054825574e-20,-0.2343182195006572,-0.7594815226817732,-0.09371872205398865
0.14400000000000002,-2.01123839804751e-14,4.9552376091277495e-15,0.058072319999979374,4.2231316499443885e-18,-1.8515937611586e-17,-4.5658048021506403e-20,-0.2343182195006572,-0.7594815226817732,-0.09371872205398865
0.146,-2.6385144069607236e-14,6.445365074991827e-15,0.059719679999973005,4.267650546141605e-18,-1.9247258608219098e-17,-7.157751487981398e-20,-0.2343182195006572,-0.7594815226817732,-0.09371872205398865
0.148,6.9735883734267645e-15,-1.6974269212433057e-15,0.06139008000000709,4.525251420542098e-18,-2.0035650745539714e-17,-8.078062191948816e-20,-0.2343182195006572,-0.7594815226817732,-0.09371872205398865
0.15,2.688821387764051e-15,-7.016956460326185e-16,0.06308352000000289,4.692802362931652e-18,-2.0797057700054497e-17,-4.022847067165217e-20,-0.2343182195006572,-0.7594815226817732,-0.09371872205398865
0.152,3.812228310806631e-14,-9.358833152894874e-15,0.06480000000003908,5.032396772780194e-18,-2.1552182706467993e-17,-4.292206718765464e-20,-0.2343182195006572,-0.7594815226817732,-0.09371872205398865
0.154,3.4763858458575214e-14,-8.501879755762332e-15,0.06653952000003567,5.370025783678323e-18,-2.2385562397736013e-17,3.4609106206548504e-20,-0.2343182195006572,-0.7594815226817732,-0.09371872205398865
0.156,-6.016021014687567e-15,1.4675760606763788e-15,0.06830207999999374,5.768792553707699e-18,-2.3352939307832864e-17,-2.526688716536603e-20,-0.2343182195006572,-0.7594815226817732,-0.09371872205398865
0.158,-6.085409953726639e-15,1.457167719820518e-15,0.07008767999999369,5.780440650444224e-18,-2.429445727403642e-17,-1.6193624228959523e-20,-0.2343182195006572,-0.7594815226817732,-0.09371872205398865
0.16,3.0878077872387166e-14,-7.631048570821974e-15,0.07189632000003168,6.181228476784364e-18,-2.52902283716019e-17,-8.068458441689731e-20,-0.2343182195006572,-0.7594815226817732,-0.09371872205398865
0.162,3.0433988662537104e-14,-7.504413757075667e-15,0.07372800000003121,6.448962461418867e-18,-2.627391588242726e-17,-7.515762398959039e-20,-0.2343182195006572,-0.7594815226817732,-0.09371872205398865
0.164,-6.2103100439969694e-15,1.536964999715451e-15,0.07558271999999353,6.5015655828591484e-18,-2.7118813628934896e-17,-1.1953695811198712e-19,-0.2343182195006572,-0.7594815226817732,-0.09371872205398865
0.166,-4.586608870482678e-15,1.0928757898653885e-15,0.07746047999999511,6.8512652742615214e-18,-2.8015909572691557e-17,-1.45305388708102e-19,-0.2343182195006572,-0.7594815226817732,-0.09371872205398865
0.168,3.5284275501368256e-14,-8.628514569508638e-15,0.0793612800000361,7.155939999658426e-18,-2.8899512925045306e-17,-1.4619619016046217e-19,-0.2343182195006572,-0.7594815226817732,-0.09371872205398865
0.17,-3.807371085073896e-14,9.308526172091547e-15,0.08128511999996088,7.300669766780767e-18,-2.990643891415057e-17,-1.6933594629220687e-19,-0.2343182195006572,-0.7594815226817732,-0.09371872205398865
0.17200000000000001,5.10702591327572e-15,-1.2784912017949068e-15,0.08323200000000519,7.609386604799204e-18,-3.0846830641441577e-17,-1.7945668137661277e-19,-0.2343182195006572,-0.7594815226817732,-0.09371872205398865
0.17400000000000002,8.416878305439468e-15,-2.050443148604586e-15,0.08520192000000851,8.0102300884997e-18,-3.194925061133022e-17,-1.6833783847036742e-19,-0.2343182195006572,-0.7594815226817732,-0.09371872205398865
0.176,-2.3397950243975174e-14,5.6395860204006e-15,0.08719487999997595,8.333094320693503e-18,-3.3088401650901667e-17,-2.1076334126692683e-19,-0.2343182195006572,-0.7594815226817732,-0.09371872205398865
0.178,-1.8020307468447072e-14,4.4027281820291364e-15,0.08921087999998137,8.569895076137548e-18,-3.415070701028139e-17,-2.882733225022057e-19,-0.2343182195006572,-0.7594815226817732,-0.09371872205398865
0.18,2.6853519408120974e-14,-6.617970060851519e-15,0.09124992000002738,9.060844149209335e-18,-3.538676103529903e-17,-2.512999347892843e-19,-0.2343182195006572,-0.7594815226817732,-0.09371872205398865
0.182,3.429201367310952e-14,-8.316264343832813e-15,0.09331200000003491,9.383819696123846e-18,-3.6739209819516785e-17,-1.4250583139747746e-19,-0.2343182195006572,-0.7594815226817732,-0.09371872205398865
0.184,4.1772141301521515e-15,-1.0599160438218291e-15,0.09539712000000403,9.710837355659894e-18,-3.8148446978671814e-17,-4.2941661637717096e-20,-0.2343182195006572,-0.7594815226817732,-0.09371872205398865
0.186,1.3697376566312869e-14,-3.327199626923516e-15,0.09750528000001366,1.0041785813096761e-17,-3.94011747681178e-17,-1.0382703169836643e-19,-0.2343182195006572,-0.7594815226817732,-0.09371872205398865
0.188,-1.5584755708175635e-14,3.866698627952303e-15,0.09963647999998365,1.0208747199637534e-17,-4.072043681937802e-17,-1.7773142280635918e-19,-0.2343182195006572,-0.7594815226817732,-0.09371872205398865
0.19,-5.370703881624195e-15,1.2732870313669764e-15,0.10179071999999426,1.0527624976570157e-17,-4.190944835633536e-17,-1.353171888766882e-19,-0.2343182195006572,-0.7594815226817732,-0.09371872205398865
0.192,-3.2730762544730396e-14,7.846154281843098e-15,0.10396799999996648,1.0776607727239156e-17,-4.324876771285004e-17,-1.6490716791391805e-19,-0.2343182195006572,-0.7594815226817732,-0.09371872205398865
0.194,-2.0296264668928643e-14,4.846817391879199e-15,0.10616831999997903,1.1103458414694135e-17,-4.433805825503561e-17,-2.9217240743670787e-19,-0.2343182195006572,-0.7594815226817732,-0.09371872205398865
0.196,3.039235529911366e-14,-7.539108226595204e-15,0.10839168000003091,1.1688499532398394e-17,-4.565788583779634e-17,-3.141842116433439e-19,-0.2343182195006572,-0.7594815226817732,-0.09371872205398865
0.198,-3.354955202539145e-14,8.19309897703846e-15,0.11063807999996556,1.2113595691828084e-17,-4.710103605730859e-17,-3.584449705293668e-19,-0.2343182195006572,-0.7594815226817732,-0.09371872205398865
0.2,1.938033067361289e-14,-4.799979858027825e-15,0.11290752000001933,1.2550818189122378e-17,-4.871455140163263e-17,-4.3039553031152145e-19,-0.2343182195006572,-0.7594815226817732,-0.09371872205398865
0.202,3.3181790648484366e-14,-8.139322549283179e-15,0.11520000000003391,1.3053893600058763e-17,-5.0120970551462065e-17,-4.2111194349473493e-19,-0.2343182195006572,-0.7594815226817732,-0.09371872205398865
0.20400000000000001,9.749145934989656e-15,-2.5153490401663703e-15,0.11751552000000977,1.2897034272149583e-17,-5.184338724593435e-17,-3.790647041410855e-19,-0.2343182195006572,-0.7594815226817732,-0.09371872205398865
0.20600000000000002,-5.004330283497893e-14,1.2082349010178461e-14,0.11985407999994854,1.3142086224917756e-17,-5.333921597215808e-17,-2.482051433578995e-19,-0.2343182195006572,-0.7594815226817732,-0.09371872205398865
0.20800000000000002,-7.127631818093505e-14,1.7508564043033914e-14,0.12221567999992644,1.3481285879678756e-17,-5.5025467128448067e-17,-1.0072097140008855e-19,-0.2343182195006572,-0.7594815226817732,-0.09371872205398865
0.21,2.250977182427505e-14,-5.51468593013027e-15,0.12460032000002284,1.3820374219719044e-17,-5.649842054009174e-17,-1.0445640563064544e-19,-0.2343182195006572,-0.7594815226817732,-0.09371872205398865
0.212,-7.385758671318854e-14,1.8030715809302933e-14,0.12700799999992396,1.433158951325885e-17,-5.812506531211885e-17,-3.802288298376647e-20,-0.2343182195006572,-0.7594815226817732,-0.09371872205398865
0.214,-5.490052856771399e-14,1.3445841662296232e-14,0.1294387199999434,1.4842749149438304e-17,-5.964506121182282e-17,-4.719916343106833e-20,-0.2343182195006572,-0.7594815226817732,-0.09371872205398865
0.216,-7.352451980580099e-14,1.7926632400744325e-14,0.13189247999992448,1.536199301086082e-17,-6.127863386140133e-17,-7.483531114245857e-20,-0.2343182195006572,-0.7594815226817732,-0.09371872205398865
0.218,2.3495094758629875e-14,-5.811323644522304e-15,0.13436928000002352,1.6213364441417775e-17,-6.304922410693493e-17,6.555625579715009e-20,-0.2343182195006572,-0.7594815226817732,-0.09371872205398865
0.22,-6.995792833919268e-14,1.7093965132275457e-14,0.13686911999992762,1.6314639886397515e-17,-6.489552896965924e-17,1.3724712737276942e-19,-0.2343182195006572,-0.7594815226817732,-0.09371872205398865
0.222,-4.810041254188491e-14,1.189326415129699e-14,0.13939199999995003,1.684999654094581e-17,-6.664960624666365e-17,-2.918557960984571e-21,-0.2343182195006572,-0.7594815226817732,-0.09371872205398865
0.224,-6.379619055252306e-14,1.553271400389633e-14,0.141937919999934,1.730742960134777e-17,-6.854706346567403e-17,-1.2101878590335942e-19,-0.2343182195006572,-0.7594815226817732,-0.09371872205398865
0.226,3.5790814756353484e-14,-8.7360674250192e-15,0.14450688000003634,1.758476279772785e-17,-7.039055031907272e-17,-1.3960849727071547e-19,-0.2343182195006572,-0.7594815226817732,-0.09371872205398865
0.228,-5.47201173262124e-14,1.3336554083309693e-14,0.14709887999994334,1.8116188654375318e-17,-7.23011369657862e-17,-1.193246427840613e-19,-0.2343182195006572,-0.7594815226817732,-0.09371872205398865
0.23,-2.9934388301455783e-14,7.292777493006497e-15,0.14971391999996864,1.8885538720804048e-17,-7.405166990606534e-17,-2.3247487915210914e-20,-0.2343182195006572,-0.7594815226817732,-0.09371872205398865
0.232,-4.272970866026071e-14,1.0515893711371405e-14,0.15235199999995563,1.967105723771891e-17,-7.602935634609354e-17,3.5909932425459634e-20,-0.2343182195006572,-0.7594815226817732,-0.09371872205398865
0.234,5.97993876638725e-14,-1.479372180313021e-14,0.15501312000006082,2.0390667183631318e-17,-7.810749010829322e-17,-6.177659692699184e-20,-0.2343182195006572,-0.7594815226817732,-0.09371872205398865
0.23600000000000002,-2.7519653222896068e-14,6.963180032570904e-15,0.15769727999997057,2.1028311422775855e-17,-8.027221543756157e-17,-1.2816773525602383e-19,-0.2343182195006572,-0.7594815226817732,-0.09371872205398865
0.23800000000000002,-4.3021142204224816e-16,-1.3183898417423734e-16,0.16040447999999935,2.14697986621331e-17,-8.23691146461155e-17,9.309098370651064e-20,-0.2343182195006572,-0.7594815226817732,-0.09371872205398865
0.24,-1.0005885009434223e-14,2.355754480376504e-15,0.16313471999998896,2.1763300308999314e-17,-8.44397549992633e-17,3.758153781097166e-20,-0.2343182195006572,-0.7594815226817732,-0.09371872205398865
0.242,-5.745404152435185e-14,1.4013096238940648e-14,0.16588799999994053,2.2577113614264905e-17,-8.681496006385238e-17,3.212942272733211e-20,-0.2343182195006572,-0.7594815226817732,-0.09371872205398865
0.244,1.074140776324839e-14,-2.768618667658984e-15,0.16866432000001003,2.3362632131179765e-17,-8.879264650388059e-17,9.128684306799958e-20,-0.2343182195006572,-0.7594815226817732,-0.09371872205398865
0.246,4.100886297209172e-14,-9.971190539914687e-15,0.17146368000004159,2.3968162098793462e-17,-9.092966032294345e-17,4.0117438617205674e-19,-0.2343182195006572,-0.7594815226817732,-0.09371872205398865
0.248,3.406996906818449e-14,-8.413408858487514e-15,0.17428608000003437,2.460591765265871e-17,-9.330768339685811e-17,4.860028540313987e-19,-0.2343182195006572,-0.7594815226817732,-0.09371872205398865
0.25,-1.0172418463127997e-14,2.7131075164277263e-15,0.17713151999998866,2.5587704484081576e-17,-9.556649370224706e-17,4.0873002326886755e-19,-0.2343182195006572,-0.7594815226817732,-0.09371872205398865
0.252,6.064593272014918e-14,-1.500535806719938e-14,0.18000000000006133,2.5561316214398664e-17,-9.788377932889786e-17,3.087226680145611e-19,-0.2343182195006572,-0.7594815226817732,-0.09371872205398865
0.254,-5.871692021486297e-14,1.4242079737769586e-14,0.18289151999993886,2.6543103045821527e-17,-1.0014258963428681e-16,2.31449837252033e-19,-0.2343182195006572,-0.7594815226817732,-0.09371872205398865
0.256,-6.30745455865167e-14,1.5057399771478686e-14,0.1858060799999349,2.6672673279152e-17,-1.0238641312157198e-16,2.385311734033422e-19,-0.2343182195006572,-0.7594815226817732,-0.09371872205398865
0.258,4.879430193227563e-14,-1.173020014455517e-14,0.18874368000004849,2.7302344607774184e-17,-1.0465085944561213e-16,3.418195085267649e-19,-0.2343182195006572,-0.7594815226817732,-0.09371872205398865
0.26,-3.072542220650121e-14,7.62237495344209e-15,0.1917043199999679,2.798029865841334e-17,-1.0717017077960686e-16,3.1909427688921625e-20,-0.2343182195006572,-0.7594815226817732,-0.09371872205398865
0.262,6.078471059822732e-15,-1.4432899320127035e-15,0.19468800000000458,2.831422143149488e-17,-1.098086948821273e-16,-1.1589935452705463e-19,-0.2343182195006572,-0.7594815226817732,-0.09371872205398865
0.264,4.912736883966318e-15,-1.1587952819525071e-15,0.19769472000000335,2.9640262169916785e-17,-1.1237488790828314e-16,-5.2834271534711e-20,-0.2343182195006572,-0.7594815226817732,-0.09371872205398865
0.266,-3.412548021941575e-14,8.48626724447854e-15,0.20072447999996407,3.045014467728155e-17,-1.1490660234258128e-16,1.021631532020576e-19,-0.2343182195006572,-0.7594815226817732,-0.09371872205398865
0.268,4.250766405533568e-14,-1.0477729794899915e-14,0.2037772800000427,3.1104068681632935e-17,-1.1751177891624503e-16,1.5007188653321358e-19,-0.2343182195006572,-0.7594815226817732,-0.09371872205398865
0.27,-7.102651800039439e-14,1.7513768213461844e-14,0.20685311999992612,3.174193555021889e-17,-1.2010309973480602e-16,3.861199605809049e-19,-0.2343182195006572,-0.7594815226817732,-0.09371872205398865
0.272,-6.956935028057387e-14,1.7062740109707875e-14,0.2099519999999281,3.2231928141034534e-17,-1.228814594426072e-16,4.966194759588998e-19,-0.2343182195006572,-0.7594815226817732,-0.09371872205398865
0.274,4.7531423241764514e-14,-1.1601830607332886e-14,0.21307392000004804,3.292616195688053e-17,-1.258412220209973e-16,3.0100926678124765e-19,-0.2343182195006572,-0.7594815226817732,-0.09371872205398865
0.276,-2.550737399076297e-14,6.286637876939949e-15,0.2162188799999727,3.362039577272653e-17,-1.288009845993874e-16,1.0539905760358313e-19,-0.2343182195006572,-0.7594815226817732,-0.09371872205398865
0.278,1.6459056340067946e-14,-4.260480856999038e-15,0.2193868800000159,3.429037691284333e-17,-1.314200169281539e-16,-3.483154978180239e-20,-0.2343182195006572,-0.7594815226817732,-0.09371872205398865
0.28,2.1163626406917047e-14,-5.2284565565940966e-15,0.22257792000002055,3.477239659313661e-17,-1.342980976307268e-16,2.4534743904865337e-19,-0.2343182195006572,-0.7594815226817732,-0.09371872205398865
0.28200000000000003,-1.2032042029375134e-14,2.7651492207070305e-15,0.22579199999998711,3.598289995476046e-17,-1.3750563654562098e-16,1.0902449431493477e-19,-0.2343182195006572,-0.7594815226817732,-0.09371872205398865
0.28400000000000003,7.040201754904274e-14,-1.74721348500384e-14,0.22902912000007164,3.6317045357283424e-17,-1.4057075613743406e-16,2.63654924475688e-19,-0.2343182195006572,-0.7594815226817732,-0.09371872205398865
0.28600000000000003,-3.7317371415213074e-14,9.256484467812243e-15,0.23228927999996102,3.6823206398585195e-17,-1.4357626934498425e-16,3.3723470532550925e-19,-0.2343182195006572,-0.7594815226817732,-0.09371872205398865
0.28800000000000003,-3.0003777240494856e-14,7.143591274072492e-15,0.23557247999996883,3.7353508800895447e-17,-1.4670921505751177e-16,2.0421527819468985e-19,-0.2343182195006572,-0.7594815226817732,-0.09371872205398865
0.29,-5.997979890537408e-14,1.4595963326868855e-14,0.23887871999993807,3.8244122245970164e-17,-1.5016339924590894e-16,2.339442410220067e-20,-0.2343182195006572,-0.7594815226817732,-0.09371872205398865
0.292,2.5701663020072374e-14,-6.1547988927657116e-15,0.2422080000000253,3.9282609968815193e-17,-1.5343054454506592e-16,-3.187787132058597e-20,-0.2343182195006572,-0.7594815226817732,-0.09371872205398865
0.294,7.348288644237755e-14,-1.7954387976359953e-14,0.24556032000007438,3.9673011003877486e-17,-1.5665080815206182e-16,-4.601253305735564e-19,-0.2343182195006572,-0.7594815226817732,-0.09371872205398865
0.296,-6.886158310237533e-14,1.67990621413594e-14,0.24893567999992822,4.085926168977213e-17,-1.5951761681733233e-16,-5.410686735150022e-19,-0.2343182195006572,-0.7594815226817732,-0.09371872205398865
0.298,5.728750807065808e-14,-1.3645334862033565e-14,0.25233408000005675,4.2201470878680165e-17,-1.6231096334323725e-16,-5.149233250508507e-19,-0.2343182195006572,-0.7594815226817732,-0.09371872205398865
0.3,-7.993605777301127e-15,2.0261570199409107e-15,0.25575551999999124,4.271582745994571e-17,-1.6564335104530835e-16,-3.0858380527674846e-19,-0.2343182195006572,-0.7594815226817732,-0.09371872205398865
0.302,4.241051954068098e-14,-1.0515893711371405e-14,0.25920000000004356,4.291018280994141e-17,-1.6900908627623608e-16,-2.979618010497846e-19,-0.2343182195006572,-0.7594815226817732,-0.09371872205398865
0.304,5.5594417958104714e-14,-1.430452978290475e-14,0.2626675200000571,4.380079625501613e-17,-1.7246327046463328e-16,-4.787826551422861e-19,-0.2343182195006572,-0.7594815226817732,-0.09371872205398865
0.306,3.141931159689193e-14,-7.688294445529209e-15,0.2661580800000324,4.4823115527375037e-17,-1.7550326226404117e-16,-4.971352160368868e-19,-0.2343182195006572,-0.7594815226817732,-0.09371872205398865
0.308,-2.9976021664879227e-14,6.855627177060342e-15,0.2696716799999687,4.558213445988627e-17,-1.7958493658607388e-16,-6.892047571388843e-19,-0.2343182195006572,-0.7594815226817732,-0.09371872205398865
0.31,2.42861286636753e-14,-5.981326545168031e-15,0.2732083200000232,4.663667931849673e-17,-1.8286593764033366e-16,-9.326163932782248e-19,-0.2343182195006572,-0.7594815226817732,-0.09371872205398865
0.312,3.9995784462121264e-14,-1.008915173628111e-14,0.27676800000004015,4.765113699505399e-17,-1.862189481791597e-16,-6.300698745320091e-19,-0.2343182195006572,-0.7594815226817732,-0.09371872205398865
0.314,1.84297022087776e-14,-4.225786387479502e-15,0.2803507200000187,4.803378774903535e-17,-1.8996552827021997e-16,-5.861986479557954e-19,-0.2343182195006572,-0.7594815226817732,-0.09371872205398865
0.316,-4.032885136950881e-14,1.0005885009434223e-14,0.2839564799999583,4.9784924646886944e-17,-1.9397487151588804e-16,-5.67394323849467e-19,-0.2343182195006572,-0.7594815226817732,-0.09371872205398865
0.318,1.6486811915683575e-14,-3.989863994746656e-15,0.28758528000001593,5.069979076769085e-17,-1.977697859539088e-16,-8.035947797342228e-19,-0.2343182195006572,-0.7594815226817732,-0.09371872205398865
0.32,3.4861002973229915e-14,-9.26342336171615e-15,0.291237120000036,5.1566596795919217e-17,-2.017364308712676e-16,-3.2415760728097406e-19,-0.2343182195006572,-0.7594815226817732,-0.09371872205398865
0.322,1.715294573045867e-14,-4.08006961549745e-15,0.29491200000001655,5.1465314905094986e-17,-2.0568954162532203e-16,-4.134131142050598e-19,-0.2343182195006572,-0.7594815226817732,-0.09371872205398865
0.324,-3.905209489118988e-14,9.818534874028728e-15,0.29860991999995956,5.288028212119061e-17,-2.0950507890009775e-16,-5.534065711176961e-19,-0.2343182195006572,-0.7594815226817732,-0.09371872205398865
0.326,2.042810365310288e-14,-5.322131624296844e-15,0.3023308800000203,5.2951015869145195e-17,-2.1339858326988925e-16,-7.237127273527138e-19,-0.2343182195006572,-0.7594815226817732,-0.09371872205398865
0.328,4.263256414560601e-14,-1.0484668688803822e-14,0.3060748800000426,5.403025866236768e-17,-2.1787350555235788e-16,-4.1762554053083733e-19,-0.2343182195006572,-0.7594815226817732,-0.09371872205398865
0.33,2.628453010800058e-14,-6.9111383282915995e-15,0.3098419200000274,5.5101194600905696e-17,-2.2180825559565937e-16,-3.9551769882160967e-19,-0.2343182195006572,-0.7594815226817732,-0.09371872205398865
0.332,-2.603472992745992e-14,6.2727600891321345e-15,0.3136319999999724,5.668053848941991e-17,-2.263038007148829e-16,6.776486972374057e-21,-0.2343182195006572,-0.7594815226817732,-0.09371872205398865
0.334,3.59989815734707e-14,-9.194034422677078e-15,0.31744512000003655,5.789923739100753e-17,-2.298382141242979e-16,3.213281162948763e-21,-0.2343182195006572,-0.7594815226817732,-0.09371872205398865
0.336,6.078471059822732e-14,-1.4675760606763788e-14,0.3212812800000622,5.914218896832435e-17,-2.337133577833365e-16,-5.57295264387617e-20,-0.2343182195006572,-0.7594815226817732,-0.09371872205398865
0.338,4.829470157119431e-14,-1.181693631835401e-14,0.325140480000049,6.011364466582972e-17,-2.38303309470479e-16,-4.2114905317214393e-19,-0.2343182195006572,-0.7594815226817732,-0.09371872205398865
0.34,-1.4432899320127035e-15,1.0477729794899915e-15,0.3290227199999973,6.13889331441188e-17,-2.4263276012901574e-16,-5.539313298302079e-19,-0.2343182195006572,-0.7594815226817732,-0.09371872205398865
0.342,6.322720125240266e-14,-1.5584755708175635e-14,0.3329280000000646,6.267230584765094e-17,-2.4707578753742695e-16,-7.051734737523587e-19,-0.2343182195006572,-0.7594815226817732,-0.09371872205398865
0.34400000000000003,-6.231126725708691e-14,1.5189238755652923e-14,0.3368563199999368,6.358739459789626e-17,-2.5129729746474044e-16,-6.389347172603851e-19,-0.2343182195006572,-0.7594815226817732,-0.09371872205398865
0.34600000000000003,-7.21922521762508e-14,1.7714996136675154e-14,0.340807679999927,6.448676015653831e-17,-2.5614484487088997e-16,6.910219851324576e-20,-0.2343182195006572,-0.7594815226817732,-0.09371872205398865
0.34800000000000003,3.3639757646142243e-14,-8.777700788442644e-15,0.3447820800000348,6.543418580775591e-17,-2.608206617977015e-16,6.150148594885969e-20,-0.2343182195006572,-0.7594815226817732,-0.09371872205398865
0.35000000000000003,-5.079270337660091e-14,1.2094492074510299e-14,0.34877951999994766,6.838157058125752e-17,-2.6472577909294765e-16,-1.6614965548050692e-19,-0.2343182195006572,-0.7594815226817732,-0.09371872205398865
0.352,-2.0844437287337314e-14,5.1486592766991635e-15,0.35279999999997985,6.932921886191651e-17,-2.698281915090518e-16,1.2868884433183031e-19,-0.2343182195006572,-0.7594815226817732,-0.09371872205398865
0.354,-2.6867397195928788e-14,6.95971058561895e-15,0.356843519999972,7.062112104957458e-17,-2.7523798664592286e-16,5.638652578990516e-19,-0.2343182195006572,-0.7594815226817732,-0.09371872205398865
0.356,-7.135958490778194e-14,1.7520707107365752e-14,0.36091007999992664,7.160088360176443e-17,-2.8036811057223246e-16,4.824250762783305e-19,-0.2343182195006572,-0.7594815226817732,-0.09371872205398865
0.358,-2.220446049250313e-16,-1.457167719820518e-16,0.3649996799999992,7.295679170304275e-17,-2.854067332402219e-16,-1.3739508539736218e-19,-0.2343182195006572,-0.7594815226817732,-0.09371872205398865
0.36,3.3584246494910985e-14,-7.820133429703446e-15,0.36911232000003347,7.490441954484376e-17,-2.901237958405434e-16,4.7418199982490954e-20,-0.2343182195006572,-0.7594815226817732,-0.09371872205398865
0.362,2.88935542158697e-14,-6.7307270867900115e-15,0.37324800000003,7.624415919563594e-17,-2.9493526500878375e-16,-5.354822271650157e-19,-0.2343182195006572,-0.7594815226817732,-0.09371872205398865
0.364,-1.301736496372996e-14,2.6575963651964685e-15,0.37740671999998776,7.855220939492213e-17,-3.001868638296212e-16,-2.4725076255846454e-19,-0.2343182195006572,-0.7594815226817732,-0.09371872205398865
0.366,6.19226891984681e-14,-1.4890866317784912e-14,0.3815884800000626,7.917177221906824e-17,-3.0520904702470747e-16,-1.2966991102916037e-19,-0.2343182195006572,-0.7594815226817732,-0.09371872205398865
0.368,-5.4511950509095186e-14,1.3683498778505054e-14,0.3857932799999433,8.015131214181667e-17,-3.099125754617246e-16,-5.135493050266294e-19,-0.2343182195006572,-0.7594815226817732,-0.09371872205398865
0.37,-5.6565863104651726e-14,1.3579415369946446e-14,0.39002111999994304,8.147510597156416e-17,-3.1492348661950847e-16,-7.570907852692268e-19,-0.2343182195006572,-0.7594815226817732,-0.09371872205398865
0.372,5.825895321720509e-14,-1.4287182548144983e-14,0.3942720000000597,8.240614054285419e-17,-3.189455545572783e-16,-1.0302109756821625e-18,-0.2343182195006572,-0.7594815226817732,-0.09371872205398865
0.374,-1.8346435481930712e-14,3.969047313034935e-15,0.3985459199999821,8.368165165058469e-17,-3.2370160070510766e-16,-8.605540399635032e-19,-0.2343182195006572,-0.7594815226817732,-0.09371872205398865
0.376,2.1899149160731213e-14,-4.7531423241764514e-15,0.40284288000002166,8.4613354110199e-17,-3.2900345511075537e-16,-2.2635659324623196e-19,-0.2343182195006572,-0.7594815226817732,-0.09371872205398865
0.378,2.248201624865942e-14,-5.974387651264124e-15,0.40716288000002454,8.628140184694552e-17,-3.343217489893062e-16,-3.2956015973394527e-19,-0.2343182195006572,-0.7594815226817732,-0.09371872205398865
0.38,-1.176836406102666e-14,3.642919299551295e-15,0.4115059199999868,8.79492269542506e-17,-3.392134473785644e-16,-7.352029385984065e-19,-0.2343182195006572,-0.7594815226817732,-0.09371872205398865
0.382,6.71962485654376e-14,-1.6653345369377348e-14,0.41587200000006896,8.928941186392564e-17,-3.4487810752539007e-16,-7.1322494099245425e-19,-0.2343182195006572,-0.7594815226817732,-0.09371872205398865
0.384,-4.4048098502003086e-14,1.0443035325380379e-14,0.4202611199999562,9.058109142214225e-17,-3.4986130717296843e-16,-5.804877398019563e-19,-0.2343182195006572,-0.7594815226817732,-0.09371872205398865
0.386,-3.966271755473372e-14,9.318934512947408e-15,0.4246732799999613,9.123299114726064e-17,-3.5533779736755294e-16,-5.367463573289995e-19,-0.2343182195006572,-0.7594815226817732,-0.09371872205398865
0.388,-7.255307465925398e-14,1.7354173653671978e-14,0.42910847999992774,9.257339868637708e-17,-3.614290530036712e-16,-2.1232914734632388e-19,-0.2343182195006572,-0.7594815226817732,-0.09371872205398865
0.39,1.0186296250935811e-14,-2.8171909249863347e-15,0.4335667200000123,9.494590005816638e-17,-3.6716267033421226e-16,-3.742158332292154e-19,-0.2343182195006572,-0.7594815226817732,-0.09371872205398865
0.392,5.56776846849516e-14,-1.3850032232198828e-14,0.43804800000005806,9.635075876978593e-17,-3.737359444800342e-16,-4.999167737359701e-19,-0.2343182195006572,-0.7594815226817732,-0.09371872205398865
0.394,6.392109064279339e-14,-1.5681900222830336e-14,0.44255232000006517,9.767499785841622e-17,-3.7960004661640335e-16,-1.3857982922509622e-19,-0.2343182195006572,-0.7594815226817732,-0.09371872205398865
0.396,3.247402347028583e-14,-9.242606680004428e-15,0.44707968000003584,9.804709484903866e-17,-3.8525117259992455e-16,-6.852945109964661e-19,-0.2343182195006572,-0.7594815226817732,-0.09371872205398865
0.398,-3.394506897791416e-14,8.909539772616881e-15,0.45163007999996624,1.0004300541285667e-16,-3.9022310021020056e-16,-9.136796415778943e-19,-0.2343182195006572,-0.7594815226817732,-0.09371872205398865
0.4,1.2961853812498703e-14,-3.670674875166924e-15,0.4562035200000163,1.0136724450148698e-16,-3.960872023465697e-16,-5.523426970670204e-19,-0.2343182195006572,-0.7594815226817732,-0.09371872205398865
0.402,2.5091040356528538e-14,-6.238065619612598e-15,0.4608000000000254,1.0431507453387142e-16,-4.0084551062040115e-16,-1.7511541374292807e-19,-0.2343182195006572,-0.7594815226817732,-0.09371872205398865
0.404,-2.609024107869118e-15,1.1657341758564144e-15,0.4654195199999986,1.0598334490005935e-16,-4.065903999882446e-16,2.4120232146081936e-20,-0.2343182195006572,-0.7594815226817732,-0.09371872205398865
0.406,-6.750155989720952e-14,1.6063539387545234e-14,0.47006207999993266,1.0797947809331877e-16,-4.1198892308781326e-16,9.817431394138938e-20,-0.2343182195006572,-0.7594815226817732,-0.09371872205398865
0.40800000000000003,-1.684763439868675e-14,4.40619762898109e-15,0.4747276799999852,1.0995944283609204e-16,-4.1716029268763284e-16,2.091481302648705e-19,-0.2343182195006572,-0.7594815226817732,-0.09371872205398865
0.41000000000000003,-3.3306690738754696e-15,2.5673907444456745e-16,0.47941631999999856,1.1164365902332468e-16,-4.2270574006593275e-16,6.902482924897119e-20,-0.2343182195006572,-0.7594815226817732,-0.09371872205398865
0.41200000000000003,-2.7200464103316335e-14,6.925016116099414e-15,0.4841279999999738,1.1329553830958507e-16,-4.277968804447345e-16,2.7409972894438924e-21,-0.2343182195006572,-0.7594815226817732,-0.09371872205398865
0.41400000000000003,-8.820721930646869e-14,2.1149748619109232e-14,0.4888627199999098,1.1453915777522614e-16,-4.3295181057165105e-16,8.511158268179218e-19,-0.2343182195006572,-0.7594815226817732,-0.09371872205398865
0.41600000000000004,-3.36952687973735e-14,8.756884106730922e-15,0.4936204799999644,1.1689571332597072e-16,-4.388848698917356e-16,1.0285880878399273e-18,-0.2343182195006572,-0.7594815226817732,-0.09371872205398865
0.418,1.3397616349664077e-13,-3.272382365082649e-14,0.4984012800001391,1.1717124487255919e-16,-4.440262658553477e-16,1.308270237991083e-18,-0.2343182195006572,-0.7594815226817732,-0.09371872205398865
0.42,-3.888556143749611e-14,1.0637324354689781e-14,0.5032051199999596,1.181188931532182e-16,-4.491286782714518e-16,1.603108737803445e-18,-0.2343182195006572,-0.7594815226817732,-0.09371872205398865
0.422,5.4262150328554526e-14,-1.2483070133129104e-14,0.5080320000000571,1.20770974630062e-16,-4.542610643237635e-16,1.7292389037881569e-18,-0.2343182195006572,-0.7594815226817732,-0.09371872205398865
0.424,1.1021739076966242e-13,-2.8123336992535997e-14,0.5128819200001155,1.2279944472429368e-16,-4.601138944228303e-16,1.7294535165271293e-18,-0.2343182195006572,-0.7594815226817732,-0.09371872205398865
0.426,1.2889689315898067e-13,-3.2911173786231984e-14,0.5177548800001355,1.240751784614656e-16,-4.652965360599523e-16,2.2015496646225242e-18,-0.2343182195006572,-0.7594815226817732,-0.09371872205398865
0.428,1.127986593019159e-13,-2.766536999487812e-14,0.5226508800001148,1.257912862907877e-16,-4.70443099459165e-16,1.3827084697968433e-18,-0.2343182195006572,-0.7594815226817732,-0.09371872205398865
0.43,5.689893001203927e-14,-1.4127587988355117e-14,0.5275699200000576,1.2808316803958774e-16,-4.754675447802534e-16,1.7078596689315681e-18,-0.2343182195006572,-0.7594815226817732,-0.09371872205398865
0.432,-3.630429290524262e-14,1.0227929614359255e-14,0.5325119999999621,1.30455669411377e-16,-4.812011621107944e-16,1.545972983048652e-18,-0.2343182195006572,-0.7594815226817732,-0.09371872205398865
0.434,1.366129431801255e-13,-3.3556490919295356e-14,0.5374771200001431,1.3246797105512257e-16,-4.868268387101121e-16,1.583107330315798e-18,-0.2343182195006572,-0.7594815226817732,-0.09371872205398865
0.436,-3.1030733538273125e-14,7.507883204027621e-15,0.5424652799999701,1.3479196707545348e-16,-4.91878995541406e-16,1.5319798480174523e-18,-0.2343182195006572,-0.7594815226817732,-0.09371872205398865
0.438,6.994405055138486e-14,-1.702804564018834e-14,0.5474764800000714,1.3611553827575952e-16,-4.964633112098973e-16,9.859991553980823e-19,-0.2343182195006572,-0.7594815226817732,-0.09371872205398865
0.44,1.3095080575453721e-13,-3.164135620181696e-14,0.5525107200001369,1.3675104692095032e-16,-5.012860524154402e-16,7.642210600224648e-19,-0.2343182195006572,-0.7594815226817732,-0.09371872205398865
0.442,-1.4843681839238343e-13,3.690103778097864e-14,0.5575679999998479,1.3912354829273962e-16,-5.07019669745981e-16,6.023343741395487e-19,-0.2343182195006572,-0.7594815226817732,-0.09371872205398865
0.444,1.439959262938828e-13,-3.583244811977693e-14,0.5626483200001487,1.3982373073987498e-16,-5.127510249505202e-16,2.3287734065128577e-19,-0.2343182195006572,-0.7594815226817732,-0.09371872205398865
0.446,9.320322291728189e-14,-2.295386103412511e-14,0.5677516800000983,1.4078754747102012e-16,-5.180805908663734e-16,4.907961059354247e-19,-0.2343182195006572,-0.7594815226817732,-0.09371872205398865
0.448,5.384581669432009e-15,-2.5118795932144167e-15,0.5728780800000086,1.4396151318076897e-16,-5.255924526473991e-16,4.870789348828824e-20,-0.2343182195006572,-0.7594815226817732,-0.09371872205398865
0.45,-1.1984857550828565e-13,2.871314297436811e-14,0.5780275199998809,1.4766230219965462e-16,-5.3144754487246795e-16,2.564928538326567e-19,-0.2343182195006572,-0.7594815226817732,-0.09371872205398865
0.452,2.3425705819590803e-14,-5.648259637780484e-15,0.5832000000000277,1.504432860215046e-16,-5.37543967944187e-16,-5.176132811615414e-19,-0.2343182195006572,-0.7594815226817732,-0.09371872205398865
0.454,1.2961853812498703e-13,-3.251565683370927e-14,0.5883955200001354,1.5256809893032882e-16,-5.434799325738702e-16,-1.646234712721855e-18,-0.2343182195006572,-0.7594815226817732,-0.09371872205398865
0.456,-1.074140776324839e-13,2.6201263381153694e-14,0.5936140799998917,1.536450948148769e-16,-5.503995729879671e-16,-1.6467540891349072e-18,-0.2343182195006572,-0.7594815226817732,-0.09371872205398865
0.458,-7.582823258189819e-14,1.9345636204093353e-14,0.5988556799999225,1.5606632416756598e-16,-5.572412463070479e-16,-1.6169607662255964e-18,-0.2343182195006572,-0.7594815226817732,-0.09371872205398865
0.46,-8.415490526658687e-14,2.0761170560490427e-14,0.604120319999917,1.5878352470523716e-16,-5.64135437336941e-16,-1.0336311136001572e-18,-0.2343182195006572,-0.7594815226817732,-0.09371872205398865
0.462,-1.2706502516834917e-13,3.223810107755298e-14,0.6094079999998705,1.6256515597655343e-16,-5.711262970607553e-16,-1.0104448258966818e-18,-0.2343182195006572,-0.7594815226817732,-0.09371872205398865
0.464,9.597878047884478e-14,-2.2787327580431338e-14,0.614718720000101,1.6465807724328822e-16,-5.774611456695258e-16,-1.4603483636471768e-18,-0.2343182195006572,-0.7594815226817732,-0.09371872205398865
0.466,-2.403632848313464e-14,6.13398221105399e-15,0.6200524799999794,1.6804761714447133e-16,-5.847429486412036e-16,-5.594231489837958e-19,-0.2343182195006572,-0.7594815226817732,-0.09371872205398865
0.468,1.245115122117113e-13,-3.0531133177191805e-14,0.6254092800001324,1.6915650467110884e-16,-5.912637050762133e-16,-1.238660419206716e-18,-0.2343182195006572,-0.7594815226817732,-0.09371872205398865
0.47000000000000003,-6.999956170261612e-14,1.6708856520608606e-14,0.6307891199999336,1.709539000117444e-16,-5.983992269527567e-16,-1.637221861919868e-18,-0.2343182195006572,-0.7594815226817732,-0.09371872205398865
0.47200000000000003,6.6058269965196814e-15,-7.494005416219807e-16,0.6361920000000072,1.7411169727100714e-16,-6.056839352340333e-16,-2.0423903398388308e-18,-0.2343182195006572,-0.7594815226817732,-0.09371872205398865
0.47400000000000003,4.335420911161236e-14,-9.936496070395151e-15,0.6416179200000443,1.7520441634715849e-16,-6.119775381692939e-16,-2.6847078755335526e-18,-0.2343182195006572,-0.7594815226817732,-0.09371872205398865
0.47600000000000003,4.04121180963557e-14,-1.0824674490095276e-14,0.6470668800000449,1.7700181168779405e-16,-6.191130600458373e-16,-3.08326931824668e-18,-0.2343182195006572,-0.7594815226817732,-0.09371872205398865
0.47800000000000004,2.609024107869118e-15,0.0,0.6525388800000052,1.7942304104048314e-16,-6.259547333649181e-16,-3.053475995337394e-18,-0.2343182195006572,-0.7594815226817732,-0.09371872205398865
0.48,-7.494005416219807e-14,1.7444379274422772e-14,0.6580339199999286,1.8317233541082715e-16,-6.324912860892342e-16,-2.9564502385775464e-18,-0.2343182195006572,-0.7594815226817732,-0.09371872205398865
0.482,1.1857181902996672e-13,-2.821354261328679e-14,0.6635520000001247,1.8623356722605594e-16,-6.392662643506016e-16,-2.535221884573971e-18,-0.2343182195006572,-0.7594815226817732,-0.09371872205398865
0.484,-3.3362201889985954e-14,5.9396931817445875e-15,0.6690931199999702,1.879995161834849e-16,-6.476538611848175e-16,-1.650187008723858e-18,-0.2343182195006572,-0.7594815226817732,-0.09371872205398865
0.486,8.548717289613705e-14,-1.9692580899288714e-14,0.6746572800000897,1.89861585326065e-16,-6.556979970603571e-16,-2.1964273895497047e-18,-0.2343182195006572,-0.7594815226817732,-0.09371872205398865
0.488,-1.4099832412739488e-13,3.443079155118767e-14,0.6802444799998584,1.9241171702376032e-16,-6.635037073988454e-16,-3.066870367619304e-18,-0.2343182195006572,-0.7594815226817732,-0.09371872205398865
0.49,-9.64783808399261e-14,2.3814283878209608e-14,0.6858547199998994,1.9689802455956083e-16,-6.713364860639423e-16,-2.799927986934234e-18,-0.2343182195006572,-0.7594815226817732,-0.09371872205398865
0.492,-9.18709552877317e-14,2.481348460037225e-14,0.6914879999999052,1.994162646151667e-16,-6.795410803815177e-16,-2.9916530711940394e-18,-0.2343182195006572,-0.7594815226817732,-0.09371872205398865
0.494,-1.268984917146554e-13,3.082256672115591e-14,0.6971443199998735,2.0127877901662965e-16,-6.884384072356426e-16,-2.933015027266415e-18,-0.2343182195006572,-0.7594815226817732,-0.09371872205398865
0.496,1.0913492332065289e-13,-2.7922109069322687e-14,0.702823680000114,2.0510847038052148e-16,-6.952575364801188e-16,-3.625466367900932e-18,-0.2343182195006572,-0.7594815226817732,-0.09371872205398865
0.498,-5.551115123125783e-16,-2.914335439641036e-16,0.7085260800000059,2.0890671536120671e-16,-7.033287406822672e-16,-3.0343213899721342e-18,-0.2343182195006572,-0.7594815226817732,-0.09371872205398865
0.5,-1.4477308241112041e-13,3.405609128037668e-14,0.714251519999856,2.1201645252789391e-16,-7.107851794428819e-16,-2.7238522395531046e-18,-0.2343182195006572,-0.7594815226817732,-0.09371872205398865
0.502,-2.325917236589703e-14,5.245803791353865e-15,0.719999999999984,2.1653509696466667e-16,-7.190722651074771e-16,-2.5307493279243822e-18,-0.2343182195006572,-0.7594815226817732,-0.09371872205398865
0.504,6.378231276471524e-14,-1.6833756610878936e-14,0.72577152000007,2.197086174155327e-16,-7.257309359099175e-16,-3.57771596512499e-18,-0.2343182195006572,-0.7594815226817732,-0.09371872205398865
0.506,1.1085576900882188e-13,-2.731148640577885e-14,0.7315660800001205,2.243233820374566e-16,-7.336745606158366e-16,-4.815888310172277e-18,-0.2343182195006572,-0.7594815226817732,-0.09371872205398865
0.508,1.234568003383174e-13,-3.1058489113888754e-14,0.7373836800001292,2.2484166297077845e-16,-7.426498545649774e-16,-4.78756296556704e-18,-0.2343182195006572,-0.7594815226817732,-0.09371872205398865
0.51,9.592326932761353e-14,-2.3175905639050143e-14,0.7432243200001025,2.266718404712691e-16,-7.510928744196043e-16,-4.655085452583117e-18,-0.2343182195006572,-0.7594815226817732,-0.09371872205398865
0.512,3.402833570476105e-14,-8.590350653037149e-15,0.7490880000000338,2.285985834157937e-16,-7.600456242941401e-16,-5.349004771521683e-18,-0.2343182195006572,-0.7594815226817732,-0.09371872205398865
0.514,-6.794564910705958e-14,1.759703494030873e-14,0.7549747199999297,2.324938390993958e-16,-7.694797494947831e-16,-4.979378200761928e-18,-0.2343182195006572,-0.7594815226817732,-0.09371872205398865
0.516,9.60898027813073e-14,-2.2662427490161008e-14,0.7608844800001026,2.3642098642508726e-16,-7.785149907163389e-16,-5.28846952381204e-18,-0.2343182195006572,-0.7594815226817732,-0.09371872205398865
0.518,-8.010259122670504e-14,1.855460229904793e-14,0.7668172799999202,2.410685332068662e-16,-7.877661134003413e-16,-5.995602913162277e-18,-0.2343182195006572,-0.7594815226817732,-0.09371872205398865
0.52,9.43689570931383e-15,-3.3861802251067274e-15,0.7727731200000156,2.443727370382698e-16,-7.988015851365301e-16,-5.523292152327885e-18,-0.2343182195006572,-0.7594815226817732,-0.09371872205398865
0.522,6.42264019745653e-14,-1.529332216421153e-14,0.7787520000000703,2.4757903964899096e-16,-8.06767753917054e-16,-6.039219833831443e-18,-0.2343182195006572,-0.7594815226817732,-0.09371872205398865
0.524,7.932543510946743e-14,-1.890154699424329e-14,0.7847539200000884,2.521304662456188e-16,-8.163623375597326e-16,-5.315077966505621e-18,-0.2343182195006572,-0.7594815226817732,-0.09371872205398865
0.526,5.984102102729594e-14,-1.5765166949677223e-14,0.7907788800000647,2.5458492301704585e-16,-8.253646998354822e-16,-4.149367263145715e-18,-0.2343182195006572,-0.7594815226817732,-0.09371872205398865
0.528,3.885780586188048e-16,-1.0685896612017132e-15,0.7968268800000055,2.5720061903445137e-16,-8.357854061301373e-16,-3.9577323298211405e-18,-0.2343182195006572,-0.7594815226817732,-0.09371872205398865
0.53,-9.381384558082573e-14,2.3689383787939278e-14,0.8028979199999053,2.603108014600214e-16,-8.440950358693371e-16,-3.0423847546485904e-18,-0.2343182195006572,-0.7594815226817732,-0.09371872205398865
0.532,7.799316747991725e-14,-1.802724636235098e-14,0.8089920000000822,2.6482944589679414e-16,-8.523821215339323e-16,-2.8492818430198926e-18,-0.2343182195006572,-0.7594815226817732,-0.09371872205398865
0.534,-9.575673587391975e-14,2.3342439092743916e-14,0.8151091199999094,2.674128050132274e-16,-8.623485208290891e-16,-2.5838074406388966e-18,-0.2343182195006572,-0.7594815226817732,-0.09371872205398865
0.536,1.609823385706477e-15,-2.7755575615628914e-17,0.8212492800000089,2.707489004867204e-16,-8.729851085861909e-16,-2.7902145736143725e-18,-0.2343182195006572,-0.7594815226817732,-0.09371872205398865
0.538,6.411537967210279e-14,-1.3364309658925322e-14,0.8274124800000675,2.7677301763761265e-16,-8.826125711746756e-16,-3.540874732698569e-18,-0.2343182195006572,-0.7594815226817732,-0.09371872205398865
0.54,8.693046282814976e-14,-1.84297022087776e-14,0.8335987200000896,2.793882683961354e-16,-8.921800864907454e-16,-3.954118224127367e-18,-0.2343182195006572,-0.7594815226817732,-0.09371872205398865
0.542,7.027711745877241e-14,-1.8457457784393227e-14,0.8398080000000743,2.8278948293045576e-16,-9.045784792254286e-16,-3.703325870462091e-18,-0.2343182195006572,-0.7594815226817732,-0.09371872205398865
0.544,1.8540724511240114e-14,-5.176414852314792e-15,0.8460403200000192,2.8543751584883353e-16,-9.154534925195816e-16,-3.58553040619379e-18,-0.2343182195006572,-0.7594815226817732,-0.09371872205398865
0.546,-7.316369732279782e-14,1.97758476261356e-14,0.8522956799999286,2.886442637184375e-16,-9.242728522786908e-16,-3.4965796629438764e-18,-0.2343182195006572,-0.7594815226817732,-0.09371872205398865
0.548,1.0647038806155251e-13,-2.338407245616736e-14,0.8585740800001094,2.90700799525734e-16,-9.358960211298046e-16,-3.880978433354435e-18,-0.2343182195006572,-0.7594815226817732,-0.09371872205398865
0.55,-5.945244296867713e-14,1.6486811915683575e-14,0.8648755199999405,2.9390843791310364e-16,-9.464217628460843e-16,-2.5822708405975293e-18,-0.2343182195006572,-0.7594815226817732,-0.09371872205398865
0.552,4.0523140398818214e-14,-1.0019762797242038e-14,0.8712000000000484,2.9652413393050915e-16,-9.568424691407395e-16,-2.39063590727293e-18,-0.2343182195006572,-0.7594815226817732,-0.09371872205398865
0.554,1.0591527654923993e-13,-2.6506574712925612e-14,0.8775475200001155,2.9845132213391663e-16,-9.666484099938604e-16,-2.4796768014580495e-18,-0.2343182195006572,-0.7594815226817732,-0.09371872205398865
0.556,1.3639089857520048e-13,-3.300137940698278e-14,0.8839180800001416,3.0182019976726474e-16,-9.785924957290457e-16,-2.155044978736426e-18,-0.2343182195006572,-0.7594815226817732,-0.09371872205398865
0.558,1.2717604747081168e-13,-3.122502256758253e-14,0.8903116800001314,3.063716263638926e-16,-9.88187079371724e-16,-1.4309031114105798e-18,-0.2343182195006572,-0.7594815226817732,-0.09371872205398865
0.56,7.827072323607354e-14,-2.1038726316646716e-14,0.8967283200000846,3.109553898614927e-16,-9.982359700139007e-16,-7.806007131410808e-19,-0.2343182195006572,-0.7594815226817732,-0.09371872205398865
0.562,-5.6066262743570405e-15,2.4147350785597155e-15,0.9031679999999981,3.1553959861797567e-16,-1.0091380516346628e-15,4.745801098818648e-19,-0.2343182195006572,-0.7594815226817732,-0.09371872205398865
0.5640000000000001,-1.291189377639057e-13,3.086420008457935e-14,0.9096307199998741,3.1874634648757963e-16,-1.0179574113937718e-15,5.635308531317783e-19,-0.2343182195006572,-0.7594815226817732,-0.09371872205398865
0.5660000000000001,1.8485213360008856e-14,-5.398459457239824e-15,0.9161164800000224,3.2539429765052547e-16,-1.0272910254247945e-15,2.4122545967009384e-19,-0.2343182195006572,-0.7594815226817732,-0.09371872205398865
0.5680000000000001,1.2628786905111156e-13,-3.341771304121721e-14,0.9226252800001344,3.3141886006030055e-16,-1.0377716789918644e-15,9.544372533939315e-20,-0.2343182195006572,-0.7594815226817732,-0.09371872205398865
0.5700000000000001,1510.7220077656552,-1050.660498573995,600.0505844889358,7.6332400379435645,5.202545824815437,-5.477289667880595,-0.20683706926559625,-0.751725442464108,-0.11153147424757631
0.5720000000000001,44.093483229407994,-30.98256537191679,20.046358244701604,7.943408630962435,5.317825887750077,-5.632507530659298,-0.17881115033515133,-0.7434457885197514,-0.12938658599952846
0.5740000000000001,-0.009954408336939669,0.015013713116822078,0.94211771637448,7.997092086604161,5.237637172683892,-5.632507530659299,-0.1511192757533273,-0.7349628212234192,-0.1467500472579868
0.5760000000000001,-0.009871516009688497,0.015220081239129754,0.9487174523776839,8.049966037117454,5.156906523099645,-5.632507530659302,-0.12375505497874564,-0.7262898236794669,-0.16362966774533588
0.578,-0.009785707512161512,0.015426677774378679,0.9553402239216376,8.102025011673028,5.075642110952102,-5.632507530659301,-0.09671129677649469,-0.7174396362211731,-0.18003411463583938
0.58,-0.00969696602992226,0.01563346725798366,0.9619860310053392,8.153263621937466,4.993852163424069,-5.632507530659298,-0.06998013751087714,-0.7084246440057844,-0.19597278599974588
0.582,-0.009605275143774739,0.015840413871033677,0.9686548736272078,8.203676562630775,4.911544962093574,-5.632507530659299,-0.04355316005120383,-0.6992567684628143,-0.2114556935533163
0.584,-0.009510618834548845,0.01604748144470837,0.975346751786188,8.253258612075511,4.828728842095448,-5.632507530659297,-0.017421503131217098,-0.6899474621420028,-0.22649335486860747
0.586,-0.00941298149025821,0.016254633464331363,0.9820616654805538,8.30200463273739,4.745412191277363,-5.632507530659297,0.008424038799573841,-0.680507706529813,-0.24109669499905148
0.588,-0.009312347910345575,0.01646183307396778,0.9887996147092559,8.349909571757482,4.661603449350404,-5.632507530659299,0.03399292503593468,-0.6709480124304383,-0.2552769573183868
0.59,894.9942292758712,621.4632628729403,460.0767558276458,1.186302200400363,10.147038289024456,-1.9348401667632174,0.03879740692157069,-0.6505272775844129,-0.2592394017610161
0.592,-0.020339671279060723,0.002409545736160073,1.0023187530150022,1.2214897450089839,10.142924471730495,-1.9348401667632178,0.04349925366289867,-0.6301001266532117,-0.26302006983763754
0.594,-0.020469388568455593,0.002496921526921707,1.0091256494538288,1.2566630238658214,10.138688632299598,-1.9348401667632178,0.048108926795437754,-0.6096675473778232,-0.26662842058918307
0.596,-0.02059921150737426,0.0025852845687651532,1.015955581049502,1.2918216138267822,10.134330820202042,-1.9348401667632178,0.05263610322550657,-0.5892304707149275,-0.2700730757688273
0.598,-0.02072913460509951,0.002674638264792348,1.0228085478016968,1.3269650919193088,10.129851086375467,-1.9348401667632178,0.05708975735125874,-0.5687897770994735,-0.27336189995694665
0.6,-0.020859152343429777,0.002764985991279882,1.0296845497103635,1.3620930353475023,10.125249483224277,-1.9348401667632165,0.061478233792137744,-0.5483463020000708,-0.2765020711623194
0.602,-0.020989259176060482,0.002856331097177589,1.0365835867752764,1.3972050214971667,10.120526064619046,-1.9348401667632174,0.06580931198201716,-0.527900840864103,-0.2795001431573076
0.604,-0.02111944952900463,0.002948676904473743,1.0435056589962932,1.4323006279409394,10.115680885895863,-1.934840166763217,0.0700902636971607,-0.507454153535031,-0.2823621006100461
0.606,-0.021249717800676415,0.0030420267075266585,1.0504507663732028,1.4673794324433387,10.110714003855696,-1.934840166763217,0.0743279044358357,-0.4870069682123914,-0.28509340792176135
0.608,-0.021380058362161114,0.00313638377313101,1.0574189089058832,1.5024410129658532,10.105625476763732,-1.9348401667632174,0.07852863943667639,-0.4665599850148961,-0.28769905254692374
0.61,-0.021510465557254,0.003231751340338998,1.0644100865941792,1.5374849476720271,10.10041536434869,-1.9348401667632178,0.08269850501355161,-0.44611387919862067,-0.29018358346387596
0.612,-0.02164093370226272,0.0033281326202861533,1.0714242994377872,1.572510814932532,10.095083727802113,-1.9348401667632167,0.0868432057922604,-0.4256693040751689,-0.29255114537036436
0.614,-0.021771457086679102,0.0034255307959340092,1.078461547436676,1.60751819333023,10.089630629777655,-1.9348401667632167,0.09096814835605788,-0.4052268936686999,-0.29480550909922476
0.616,-0.021902029973005166,0.0035239490220889402,1.0855218305905328,1.6425066616652488,10.084056134390352,-1.934840166763218,0.09507847174048063,-0.3847872651456322,-0.29695009868200967
0.618,-0.0220326465969628,0.0036233904249692306,1.0926051488993145,1.6774757989600733,10.078360307215853,-1.9348401667632176,0.09917907516130758,-0.3643510210465604,-0.29898801543070846
0.62,-0.022163301167616556,0.0037238581023045503,1.0997115023628128,1.7124251844645584,10.072543215289667,-1.9348401667632187,0.10327464331117558,-0.34391875134627065,-0.30092205935830524
0.622,-0.022293987867327725,0.0038253551229023297,1.1068408909808085,1.747354397661046,10.066604927106358,-1.9348401667632187,0.10736966951906476,-0.3234910353646332,-0.3027547482163998
0.624,-0.022424700852087587,0.00392788452675942,1.113993314753167,1.7822630182693964,10.060545512618756,-1.9348401667632176,0.11146847703153343,-0.30306844354854745,-0.30448833439151235
0.626,-0.022555434251853412,0.004031449324729694,1.1211687736796543,1.8171506262520354,10.054365043237116,-1.9348401667632176,0.11557523864426665,-0.28265153914284824,-0.3061248198699354
0.628,-0.022686182170065627,0.004136052498368625,1.1283672677601542,1.8520168018190417,10.048063591828287,-1.934840166763218,0.11969399488650928,-0.26224087976619914,-0.30766596945346764
0.63,-0.022816938684500132,0.0042416969997907394,1.1355887969945462,1.8868611254331673,10.041641232714847,-1.9348401667632182,0.123828670938632,-0.2418370189063826,-0.3091133223843524
0.632,-0.0229476978469009,0.004348385751516803,1.1428333613825126,1.9216831778149042,10.035098041674237,-1.9348401667632196,0.1279830924439071,-0.22144050734802476,-0.310468202516726
0.634,-0.023078453683259725,0.004456121646289751,1.1501009609240103,1.956482539947522,10.028434095937863,-1.9348401667632193,0.13216100035912612,-0.2010518945446538,-0.31173172715341746
0.636,-0.02320920019393194,0.004564907547005781,1.1573915956187955,1.9912587930821073,10.021649474190168,-1.9348401667632191,0.13636606497459222,-0.18067172994602157,-0.3129048146506337
0.638,-0.023339931354070614,0.004674746286317977,1.1647052654667027,2.0260115187426075,10.014744256567734,-1.9348401667632171,0.14060189922196303,-0.16030056429082343,-0.3139881908785886
0.64,-0.023470641113303936,0.004785640666765623,1.1720419704675769,2.0607402987308614,10.007718524658312,-1.934840166763217,0.14487207137815616,-0.13993895087430472,-0.3149823946132162
0.642,-0.023601323396039986,0.004897593460339272,1.1794017106212318,2.0954447151316375,10.000572361499865,-1.934840166763218,0.14918011726482033,-0.11958744679971663,-0.3158877819224912
0.644,-0.023731972101697293,0.005010607408625384,1.1867844859275005,2.130124350317665,9.99330585157959,-1.9348401667632178,0.1535295520355678,-0.09924661422219043,-0.3167045296003744
0.646,-0.023862581105059608,0.0051246852223625905,1.1941902963861617,2.1647787869546478,9.985919080832922,-1.934840166763218,0.15792388163708201,-0.07891702159330219,-0.3174326376918115
0.648,-0.023993144255752996,0.005239829581392602,1.201619141997089,2.199407608006301,9.9784121366425,-1.9348401667632178,0.16236661402524405,-0.058599244914409175,-0.3180719311433753
0.65,-0.0241236553791739,0.0053560431345610615,1.2090710227601416,2.234010396739354,9.970785107837163,-1.9348401667632178,0.16686127021346783,-0.03829386900674524,-0.31862206060594267
0.652,-0.02425410827612153,0.005473328499450869,1.2165459386750723,2.268586736728573,9.96303808469087,-1.9348401667632202,0.17141139522739285,-0.018001488806255714,-0.3190825024080666
0.654,-0.024384496722819435,0.005591688262348016,1.224043889741782,2.3031362118617897,9.955171158921651,-1.934840166763221,0.1760205690379092,0.0022772893087642985,-0.31945255771137093
0.656,-0.024514814471870164,0.0057111249779430995,1.2315648759600557,2.337658406344892,9.947184423690517,-1.9348401667632098,0.1806924175431231,0.02254184614899195,-0.3197313508522289
0.658,-0.024645055251375503,0.005831641169354501,1.2391088973296582,2.372152904706773,9.939077973600352,-1.934840166763216,0.18543062366927382,0.042791548295865935,-0.3199178268670943
0.66,-0.02477521276594455,0.0059532393277520745,1.2466759538505343,2.4066192918044624,9.930851904694796,-1.934840166763218,0.19023893866074237,0.06302574662499168,-0.3200107481920209
0.662,-0.024905280696132834,0.006075921912347598,1.254266045522337,2.4410571528280114,9.922506314457106,-1.9348401667632178,0.19512119363022315,0.08324377476188057,-0.3200086905201611
0.664,-0.025035252699228322,0.0061996913502495865,1.2618791723450833,2.475466073305528,9.914041301809007,-1.9348401667632138,0.20008131144169028,0.10344494746018365,-0.3199100377940479
0.666,-0.025165122408920132,0.006324550036355819,1.2695153343185386,2.50984563910813,9.905456967109513,-1.9348401667632182,0.20512331900119485,0.12362855889194238,-0.3197129763024412
0.668,-541.1729455255083,401.0892308502349,473.262349311438,-6.466824183394948,1.5983429671195843,-3.5406229301295973,0.19139089134226536,0.12815725238273773,-0.3260760769684469
0.67,-0.004154622576945072,-0.016609260650229413,1.2850110682896452,-6.456681468426677,1.6393799384025984,-3.5406229301295964,0.17764359760256868,0.13267946382917575,-0.3324898561127317
0.672,-0.004285568393327138,-0.016682343777540604,1.2927172597028438,-6.446278342325473,1.680352546361192,-3.5406229301295946,0.1638813894467184,0.13719453105683468,-0.3389556150824979
0.674,-0.004417687309794194,-0.016754730652570465,1.3004464890158525,-6.4356152135261135,1.7212591384865088,-3.540622930129597,0.15010420721008977,0.1417017560448476,-0.34547465092036783
0.676,-0.004550977646116283,-0.016826408833113704,1.3081987562284463,-6.4246925009498135,1.762098064861546,-3.540622930129597,0.13631198053118743,0.14620040488744054,-0.35204825551083335
0.678,-0.004685437608688919,-0.01689736585845797,1.3159740613403548,-6.413510633987782,1.8028676782276616,-3.5406229301295964,0.12250462902339851,0.15068970777599777,-0.35867771470423715
0.68,-0.004821065289572213,-0.01696758925014652,1.3237724043513277,-6.4020700524843495,1.843566334051031,-3.5406229301295973,0.10868206298697337,0.15516885900208574,-0.36536430741757286
0.682,-0.004957858666027104,-0.01703706651289541,1.3315937852611337,-6.390371206719679,1.8841923905889906,-3.5406229301295964,0.09484418416205623,0.15963701698191263,-0.3721093047114141
0.684,-0.005095815600773768,-0.017105785135812693,1.3394382040694945,-6.378414557392052,1.9247442089562328,-3.540622930129596,0.08099088652354343,0.1640933043027315,-0.3789139688422807
0.686,-0.005234933840831096,-0.017173732593055394,1.3473056607761917,-6.366200575599738,1.9652201531909539,-3.540622930129597,0.0671220571185055,0.16853680779172242,-0.38577955228974553
0.6880000000000001,-0.00537521101790378,-0.017240896345109294,1.355196155380947,-6.353729742822442,2.0056185903208212,-3.5406229301295955,0.05323757694686164,0.17296657860793774,-0.3927072967576312
0.6900000000000001,-0.005516644647440616,-0.0173072638395319,1.3631096878835394,-6.341002550902333,2.0459378904288665,-3.540622930129592,0.03933732188593944,0.1773816323579223,-0.39969843214864137
0.6920000000000001,-0.005659232128856162,-0.01737282251217083,1.3710462582836747,-6.328019502024656,2.086176426719214,-3.540622930129595,0.025421163659491406,0.1817809492356637,-0.40675417551182663
0.6940000000000001,-0.005802970744736513,-0.017437559787962475,1.379005866581129,-6.31478110869793,2.1263325755827815,-3.540622930129594,0.011488970851671457,0.18616347418755605,-0.41387572996229377
0.6960000000000001,-0.005947857660656142,-0.01750146308197345,1.386988512775653,-6.301287893733717,2.166404716662715,-3.5406229301295955,-0.002459390033600947,0.19052811710312367,-0.4210642835726707
0.6980000000000001,-0.00609388992500004,-0.017564519800478757,1.3949941968670099,-6.287540390225991,2.206391232919814,-3.540622930129596,-0.0164240534675457,0.19487375303225493,-0.42832100823582325
0.7000000000000001,-0.006241064468565871,-0.01762671734191039,1.4030229188549246,-6.273539141530083,2.246290510697771,-3.540622930129595,-0.030405153745444866,0.19919922242976631,-0.4356470584984498
0.7020000000000001,-0.006389378104418808,-0.017688043097957705,1.411074678739147,-6.259284701241217,2.2861009397882737,-3.5406229301295973,-0.04440282378943312,0.2035033314281382,-0.44304357036522624
0.704,-0.006538827527215796,-0.017748484454362563,1.4191494765194492,-6.244777633172621,2.3258209134960137,-3.540622930129597,-0.05841719390511393,0.2077848521393009,-0.45051166007325477
0.706,-0.0066894093135009824,-0.01780802879223825,1.427247312195528,-6.230018511333244,2.3654488287035034,-3.5406229301295955,-0.07244839049208411,0.21204252298639836,-0.45805242283670117
0.708,-0.006841119920714012,-0.01786666348875171,1.4353681857672276,-6.215007919905044,2.404983085935777,-3.5406229301295946,-0.08649653470857313,0.21627504906647424,-0.46566693156157324
0.71,-331.5320842442936,-56.389113121033034,256.7331355267003,-0.36685396748400756,-1.8233037858737249,-0.013700103902676813,-0.08716730793690244,0.2126398081954401,-0.46537121047052515
0.712,0.005294144171810733,-0.0010652568293190584,1.451797956373175,-0.3668987375220679,-1.8232947780132607,-0.013700103902676841,-0.08783874829362268,0.2090047800036271,-0.46507322818699204
0.714,0.005323986040561612,-0.0010713974566620987,1.4599886197096728,-0.366943507338947,-1.8232857690534972,-0.013700103902676758,-0.08851087204276618,0.2053699663266756,-0.4647729819291307
0.716,0.005353911627499652,-0.0010775564597362564,1.4682023228867622,-0.3669882769346149,-1.8232767589944403,-0.013700103902677091,-0.08918369545123303,0.20173536900987615,-0.4644704687703271
0.718,0.00538392093134038,-0.0010837338447216849,1.4764390659044642,-0.3670330463090481,-1.8232677478360948,-0.013700103902677063,-0.08985723479047653,0.1981009899083305,-0.464165685639395
0.72,0.0054140139506997365,-0.0010899296178314422,1.4846988487627875,-0.36707781546221857,-1.8232587355784666,-0.013700103902677008,-0.09053150633818657,0.1944668308871189,-0.4638586293207623
0.722,0.005444190684336159,-0.0010961437852218814,1.4929816714616893,-0.3671225843940988,-1.8232497222215611,-0.013700103902676952,-0.09120652637996407,0.19083289382146465,-0.4635492964546262
0.724,0.005474451130938196,-0.0011023763530744468,1.501287534001229,-0.36716735310466225,-1.8232407077653834,-0.013700103902676786,-0.09188231121099062,0.18719918059690066,-0.4632376835370864
0.726,0.005504795289208553,-0.0011086273275585923,1.5096164363813602,-0.36721212159388017,-1.8232316922099392,-0.01370010390267698,-0.09255887713769376,0.18356569310943752,-0.4629237869202566
0.728,0.005535223157894065,-0.0011148967148345568,1.5179683786021185,-0.3672568898617284,-1.8232226755552339,-0.013700103902676924,-0.09323624047940554,0.1799324332657314,-0.4626076028123489
0.73,0.00556573473557187,-0.0011211845211431815,1.526343360663463,-0.36730165790817754,-1.823213657801273,-0.01370010390267698,-0.09391441757002,0.17629940298325555,-0.46228912727774474
0.732,0.005596330021058471,-0.0011274907525946343,1.5347413825654403,-0.36734642573320225,-1.8232046389480616,-0.013700103902677035,-0.09459342475964282,0.17266660419046934,-0.4619683562370289
0.734,0.005627009012989681,-0.0011338154153975877,1.543162444308004,-0.3673911933367749,-1.8231956189956053,-0.01370010390267698,-0.09527327841624018,0.16903403882699178,-0.46164528546701405
0.736,0.005657771710054493,-0.001140158515742118,1.5516065458911918,-0.36743596071886875,-1.82318659794391,-0.01370010390267698,-0.09595399492728318,0.16540170884377436,-0.46131991060073435
0.738,0.00568861811103738,-0.0011465200597579883,1.5600736873149883,-0.367480727879455,-1.8231775757929811,-0.013700103902677174,-0.09663559070138952,0.16176961620327573,-0.46099222712742083
0.74,0.00571954821450163,-0.0011529000536835143,1.5685638685793821,-0.3675254948185105,-1.8231685525428227,-0.013700103902676897,-0.09731808216996175,0.15813776287963657,-0.4606622303924483
0.742,0.005750562019249367,-0.0011592985036539827,1.577077089684396,-0.36757026153600375,-1.8231595281934423,-0.013700103902677147,-0.0980014857888264,0.15450615085885896,-0.4603299155972727
0.744,0.005781659523942606,-0.001165715415855778,1.5856133506300107,-0.3676150280319111,-1.8231505027448436,-0.013700103902677091,-0.09868581803986647,0.15087478213898192,-0.459995277799328
0.746,0.005812840727286717,-0.001172150796462268,1.594172651416241,-0.3676597943062049,-1.823141476197033,-0.013700103902677119,-0.09937109543265715,0.1472436587302634,-0.45965831191191736
0.748,0.005844105627942325,-0.0011786046516714943,1.602754992043074,-0.3677045603588569,-1.8231324485500155,-0.013700103902677063,-0.10005733450609759,0.1436127826553605,-0.45931901270407416
0.75,0.005875454224683857,-0.001185076987620881,1.6113603725105294,-0.3677493261898414,-1.8231234198037969,-0.013700103902677035,-0.10074455183004283,0.13998215594951222,-0.45897737480040024
0.752,0.005906886516092197,-0.0011915678105346161,1.6199887928185785,-0.3677940917991305,-1.8231143899583822,-0.013700103902677063,-0.10143276400693542,0.1363517806607236,-0.45863339268088643
0.754,0.005938402500959117,-0.001198077126555619,1.6286402529672421,-0.3678388571866973,-1.8231053590137771,-0.013700103902677174,-0.10212198767343661,0.13272165884995135,-0.4582870606807077
0.756,0.005970002177897754,-0.0012046049418928395,1.6373147529565104,-0.3678836223525159,-1.823096326969987,-0.013700103902677063,-0.10281223950205802,0.12909179259129053,-0.45793837298999696
0.758,0.006001685545687141,-0.00121115126268595,1.6460122927863905,-0.36792838729655847,-1.8230872938270177,-0.013700103902677147,-0.10350353620279458,0.1254621839721639,-0.45758732365359994
0.76,0.006033452603017242,-0.0012177160951031551,1.65473287245689,-0.36797315201879793,-1.823078259584874,-0.013700103902677035,-0.10419589452475714,0.12183283509351168,-0.4572339065708033
0.762,0.0060653033484776575,-0.0012242994453833256,1.6634764919679847,-0.36801791651920723,-1.823069224243562,-0.013700103902676952,-0.1048893312578077,0.1182037480699838,-0.4568781154950451
0.764,0.006097237780878534,-0.00123090131964812,1.6722431513196956,-0.3680626807977597,-1.8230601878030865,-0.013700103902677035,-0.10558386323419552,0.11457492503013329,-0.4565199440336006
0.766,0.006129255898863234,-0.0012375217240872816,1.6810328505120125,-0.3681074448544284,-1.8230511502634537,-0.013700103902677063,-0.1062795073301955,0.11094636811661156,-0.45615938564724823
0.768,0.006161357701091108,-0.0012441606648986303,1.6898455895449407,-0.36815220868918663,-1.8230421116246678,-0.013700103902676869,-0.10697628046774892,0.10731807948636567,-0.45579643364991224
0.77,0.006193543186326783,-0.0012508181482205616,1.6986813684184734,-0.3681969723020052,-1.823033071886736,-0.013700103902677369,-0.10767419961610761,0.10369006131083747,-0.4554310812082871
0.772,0.006225812353207905,-0.0012574941802589168,1.7075401871326088,-0.3682417356928614,-1.823024031049662,-0.013700103902677008,-0.10837328179347853,0.10006231577616292,-0.45506332134143035
0.774,0.006258165200418164,-0.001264188767190394,1.7164220456873662,-0.3682864988617248,-1.8230149891134524,-0.013700103902676897,-0.10907354406867635,0.09643484508337691,-0.4546931469203499
0.776,0.006290601726707895,-0.0012709019151714018,1.7253269440827295,-0.36833126180856796,-1.8230059460781125,-0.01370010390267723,-0.10977500356277511,0.09280765144861594,-0.45432055066755384
0.778,0.006323121930746772,-0.0012776336303785274,1.7342548823186945,-0.368376024533366,-1.8229969019436474,-0.013700103902677313,-0.11047767745076582,0.08918073710332486,-0.45394552515658393
0.78,0.006355725811181684,-0.0012843839190210815,1.7432058603952654,-0.3684207870360928,-1.8229878567100626,-0.013700103902677091,-0.11118158296321955,0.0855541042944658,-0.4535680628115321
0.782,0.006388413366780504,-0.0012911527872260242,1.7521798783124667,-0.3684655493167178,-1.822978810377364,-0.01370010390267723,-0.11188673738795411,0.08192775528472857,-0.45318815590652983
0.784,0.006421184596136692,-0.0012979402412126584,1.761176936070269,-0.3685103113752179,-1.8229697629455561,-0.01370010390267698,-0.11259315807170461,0.07830169235274238,-0.4528057965652124
0.786,0.006454039498065639,-0.0013047462871106363,1.7701970336686708,-0.3685550732115616,-1.8229607144146456,-0.013700103902677313,-0.1133008624218028,0.0746759177932915,-0.45242097676017257
0.788,0.006486978071115201,-0.0013115709311516954,1.7792401711076837,-0.36859983482572656,-1.8229516647846373,-0.01370010390267723,-0.1140098679078574,0.07105043391753106,-0.45203368831237567
0.79,0.006520000314084312,-0.001318414179473787,1.788306348387313,-0.36864459621768375,-1.8229426140555363,-0.01370010390267698,-0.11472019206344572,0.06742524305320674,-0.45164392289056987
0.792,0.006553106225617014,-0.0013252760382532758,1.7973955655075275,-0.36868935738740505,-1.8229335622273486,-0.013700103902677091,-0.11543185248780807,0.06380034754487576,-0.4512516720106628
0.794,0.006586295804362222,-0.0013321565137062175,1.80650782246838,-0.36873411833486475,-1.8229245093000797,-0.013700103902677258,-0.1161448668475497,0.060175749754129974,-0.45085692703507724
0.796,0.006619569049121088,-0.0013390556119397823,1.815643119269835,-0.3687788790600359,-1.822915455273735,-0.01370010390267723,-0.1168592528783505,0.05655145205982216,-0.450459679172089
0.798,0.006652925958485725,-0.0013459733391741613,1.8248014559118797,-0.36882363956289116,-1.8229064001483195,-0.013700103902677313,-0.1175750283866823,0.05292745685829391,-0.45005991947513896
0.8,0.006686366531145321,-0.0013529097015944347,1.833982832394548,-0.36886839984340486,-1.822897343923839,-0.013700103902677035,-0.1182922112515326,0.049303766563606265,-0.4496576388421218
0.802,0.006719890765860992,-0.001359864705338748,1.843187248717839,-0.3689131599015468,-1.8228882866002991,-0.013700103902677424,-0.1190108194261386,0.04568038360777281,-0.4492528280146577
0.804,0.006753498661220297,-0.0013668383566217135,1.8524147048817186,-0.36895791973729447,-1.8228792281777049,-0.013700103902677119,-0.11973087093972636,0.042057310440994984,-0.44884547757732945
0.806,0.006787190216012082,-0.001373830661578368,1.8616652008862073,-0.3690026793506173,-1.8228701686560622,-0.013700103902677063,-0.12045238389926353,0.03843454953190051,-0.4484355779569137
0.808,0.006820965428868897,-0.0013808416264063927,1.870938736731329,-0.3690474387414891,-1.8228611080353767,-0.013700103902677202,-0.12117537649121649,0.034812103367783766,-0.4480231194215727
0.81,0.0068548242984505445,-0.001387871257293033,1.880235312417031,-0.3690921979098841,-1.8228520463156526,-0.01370010390267698,-0.1218998669833197,0.0311899744548492,-0.4476080920800321
0.812,0.006888766823527723,-0.001394919560379071,1.8895549279433541,-0.3691369568557727,-1.8228429834968969,-0.01370010390267734,-0.1226258737263552,0.027568165318457426,-0.44719048588073695
0.8140000000000001,0.006922793002706394,-0.0014019865418677113,1.898897583310271,-0.3691817155791317,-1.8228339195791143,-0.013700103902677091,-0.12335341515593973,0.023946678503373897,-0.44677029061097345
0.8160000000000001,0.0069569028346713815,-0.0014090722079375118,1.908263278517835,-0.36922647407993064,-1.8228248545623102,-0.013700103902677202,-0.12408250979432625,0.020325516574020496,-0.44634749589598416
0.8180000000000001,0.006991096318167828,-0.0014161765647343338,1.9176520135659376,-0.36927123235814663,-1.8228157884464897,-0.013700103902676591,-0.12481317625221237,0.016704682114729964,-0.44592209119804077
0.8200000000000001,0.007025373451869547,-0.0014232996184478097,1.9270637884547281,-0.3693159904137459,-1.8228067212316605,-0.013700103902677258,-0.12554543323056455,0.013084177730003017,-0.44549406581551254
0.8220000000000001,0.007059734234423021,-0.0014304413752600498,1.936498603184117,-0.36936074824670795,-1.8227976529178247,-0.013700103902677285,-0.1262792995224478,0.009464006044768913,-0.445063408881888
0.8240000000000001,0.007094178664532299,-0.0014376018413403968,1.945956457754082,-0.36940550585700405,-1.8227885835049902,-0.013700103902676952,-0.12701479401487456,0.005844169704648387,-0.4446301093647965
0.8260000000000001,0.007128706740822076,-0.0014447810228858937,1.9554373521646593,-0.36945026324460456,-1.8227795129931619,-0.013700103902677313,-0.12775193569066137,0.002224671376219974,-0.44419415606499035
0.8280000000000001,0.007163318462098379,-0.0014519789260140359,1.964941286415854,-0.36949502040948684,-1.8227704413823442,-0.013700103902676952,-0.1284907436302979,-0.0013944862527102452,-0.4437555376153018
0.8300000000000001,0.007198013826963933,-0.001459195556940296,1.974468260507636,-0.36953977735161925,-1.8227613686725441,-0.013700103902677369,-0.12923123701383343,-0.005013300472836651,-0.4433142424795887
0.8320000000000001,0.007232792834119789,-0.001466430921843842,1.984018274440069,-0.36958453407097963,-1.822752294863766,-0.013700103902677035,-0.129973435122771,-0.008631768553077648,-0.4428702589516367
0.834,0.007267655482227173,-0.001473685026882332,1.9935913282130926,-0.36962929056753646,-1.822743219956016,-0.013700103902677313,-0.13071735734198156,-0.012249887740297328,-0.4424235751540559
0.836,0.0073026017700379,-0.001480957878213729,2.0031874218266834,-0.3696740468412662,-1.8227341439492997,-0.013700103902677147,-0.1314630231616265,-0.015867655259022322,-0.4419741790371338
0.838,0.007337631696146395,-0.0014882494820571135,2.012806555280958,-0.3697188028921403,-1.8227250668436217,-0.013700103902677119,-0.1322104521790998,-0.019485068311156577,-0.44152205837767794
0.84,0.007372745259261439,-0.001495559844559513,2.0224487285757813,-0.3697635587201323,-1.8227159886389885,-0.013700103902677008,-0.13295966410098195,-0.023102124075691864,-0.4410672007778237
0.842,0.007407942458090608,-0.001502888971897931,2.0321139417112533,-0.369808314325214,-1.822706909335405,-0.013700103902677147,-0.13371067874501086,-0.026718819708415095,-0.44060959366382
0.844,0.007443223291297048,-0.0015102368702477609,2.0418021946873033,-0.36985306970735965,-1.8226978289328761,-0.013700103902677147,-0.13446351604206766,-0.03033515234161184,-0.44014922428478653
0.846,0.007478587757588515,-0.001517603545759083,2.0515134875039505,-0.3698978248665415,-1.8226887474314084,-0.013700103902677258,-0.13521819603818003,-0.03395111908376661,-0.4396860797114482
0.848,-33.097367777469834,-113.70229001498416,133.64768583524273,2.157654942308328,1.5357992983372237,1.8585955998335113,-0.1310083787269369,-0.030413357728768048,-0.4364077549795781
0.85,-0.006374473333162808,0.008927685686616615,2.070990467080641,2.152539020024871,1.542986692556845,1.8585955998335113,-0.12679756281537313,-0.026875167829758323,-0.4331167595648312
0.852,-0.006434456642601685,0.008948512695683586,2.0807708095530715,2.1473991557131225,1.5501570450569941,1.8585955998335117,-0.12258570682687325,-0.02333663373247206,-0.4298129852845443
0.854,-0.006494721016142201,0.008969137993275478,2.0905741916992358,2.142235406140994,1.5573102760840452,1.8585955998335113,-0.11837276842345255,-0.01979784068512067,-0.4264963239103974
0.856,-0.006555266104817228,0.008989559699556726,2.100400613519076,2.1370478283420566,1.564446306073482,1.8585955998335115,-0.11415870441400056,-0.01625887483963642,-0.42316666716823065
0.858,-0.006616091549420954,0.009009775933670167,2.1102500750126976,2.131836479614929,1.5715650556507643,1.8585955998335113,-0.10994347076268479,-0.012719823252913917,-0.41982390673801084
0.86,-0.006677196980540319,0.009029784813826075,2.120122576179963,2.126601417522629,1.5786664456322272,1.858595599833511,-0.10572702259752821,-0.009180773888053035,-0.41646793425399387
0.862,-0.006738582018551641,0.009049584457295201,2.130018117020963,2.1213426998919447,1.5857503970259519,1.858595599833511,-0.1015093142191567,-0.005641815615598775,-0.41309864130505425
0.864,-0.006800246273625719,0.009069172980483875,2.139936697535602,2.116060384812799,1.5928168310326476,1.8585955998335115,-0.09729029910972567,-0.002103038214779751,-0.4097159194352084
0.866,-0.0068621893456489455,0.00908854849899407,2.149878317723912,2.110754530637603,1.5998656690465245,1.8585955998335115,-0.0930699299420265,0.0014354676252568887,-0.40631966014432336
0.868,-0.00692441082417377,0.009107709127700259,2.1598429775858743,2.1054251959806107,1.6068968326561754,1.858595599833511,-0.08884815858878113,0.004973610304214063,-0.40290975488903197
0.87,-0.006986910288568526,0.009126652980720185,2.1698306771214835,2.1000724397172728,1.6139102436454456,1.858595599833511,-0.08462493613212436,0.008511297309418808,-0.39948609508384014
0.872,-0.0070496873078264265,0.009145378171548785,2.179841416330758,2.094696320983592,1.6209058239942948,1.8585955998335113,-0.08040021287328097,0.012048435214602306,-0.3960485721024426
0.874,-0.007112741440756576,0.009163882813025964,2.1898751952136055,2.0892968991754577,1.6278834958796766,1.8585955998335113,-0.07617393834244363,0.015584929678686575,-0.39259707727925947
0.876,-0.007176072235660004,0.009182165017492416,2.1999320137701215,2.0838742339480016,1.6348431816763975,1.8585955998335115,-0.07194606130885246,0.01912068544457999,-0.3891315019111825
0.878,-0.0072396792306798075,0.009200222896732446,2.2100118720001927,2.0784283852149334,1.6417848039579812,1.8585955998335115,-0.06771652979108432,0.022655606337982026,-0.3856517372595499
0.88,-38.304376501465114,-90.43639219272896,77.43505766295725,3.363151726685689,0.058458089863118776,1.1824496953024854,-0.06093662952102712,0.022924300182663854,-0.38329864804374436
0.882,-0.00027480580861399123,0.015001088866124876,2.2302215328972403,3.3630278379379277,0.06558553205160408,1.1824496953024857,-0.054156324767978686,0.023191269130386327,-0.38094459630054495
0.884,-0.00030799244335798226,0.01506876807868228,2.2403704230129637,3.3628888441826397,0.07271271168580538,1.1824496953024857,-0.04737564731112509,0.02345651058674378,-0.3785894970007368
0.886,-0.00034147066978061635,0.015136528959997758,2.2505423526052226,3.3627347459762467,0.0798395967540666,1.1824496953024857,-0.040594628873542184,0.02372002073705213,-0.37623326511162425
0.888,-0.00037524131146625395,0.01520437057073179,2.2607373216740694,3.362565543943017,0.0869661552459052,1.1824496953024854,-0.03381330112616936,0.02398179454591135,-0.37387581561136785
0.89,-0.0004093051893463637,0.015272291967682358,2.2709553302195156,3.3623812387750545,0.0940923551521668,1.1824496953024854,-0.027031695691815055,0.024241825756950698,-0.37151706350334196
0.892,-0.0004436631215903042,0.015340292203850726,2.281196378241482,3.362181831232301,0.10121816446515886,1.1824496953024857,-0.020249844149192682,0.02450010689275626,-0.36915692383049625
0.894,-0.0004783159237710388,0.01540837032844249,2.2914604657400117,3.361967322142531,0.10834355117879578,1.1824496953024854,-0.01346777803698881,0.024756629254981562,-0.36679531168972895
0.896,-0.0005132644085923815,0.015476525386852421,2.3017475927150577,3.3617377124013488,0.11546848328876058,1.1824496953024857,-0.0066855288579641525,0.02501138292464127,-0.3644321422462704
0.898,-0.000548509386145847,0.015544756420676369,2.312057759166635,3.3614930029721837,0.12259292879262436,1.1824496953024857,9.687191691285653e-05,0.025264356762587082,-0.3620673307480587
0.9,-0.0005840516636498455,0.01561306246775768,2.322390965094777,3.3612331948862875,0.12971685568999863,1.182449695302486,0.006879392844297936,0.025515538410167158,-0.35970079254012527
0.902,-205.10355459938165,91.89528599139229,184.63157428909636,-0.4966616379040585,-3.0749743350955505,-0.2727983597843162,0.0058729431808020776,0.019369213654316313,-0.360285735459021
0.904,0.014409791763923353,-0.0023306268263528513,2.3431340527223776,-0.4981650838525776,-3.074731502523334,-0.2727983597843162,0.004867183204836098,0.01322278930457065,-0.360864421173756
0.906,0.014472619552432425,-0.0023480503101827276,2.353536410859188,-0.49966841107306753,-3.0744879348719016,-0.27279835978431627,0.003862036377758872,0.007076273430845749,-0.36143687718624107
0.908,0.014535575413978399,-0.0023655588430014935,2.363961808548856,-0.5011716192061242,-3.074243632199305,-0.2727983597843162,0.002857426524092743,0.0009296740467529257,-0.36200312983003985
0.91,0.014598659269142278,-0.002383152623471871,2.3744102457913527,-0.5026747078923752,-3.0739985945637676,-0.2727983597843162,0.0018532778088742085,-0.005217000888324212,-0.36256320427770256
0.912,0.014661871038308391,-0.0024008318502098955,2.384881722586656,-0.5041776767724708,-3.073752822023693,-0.27279835978431627,0.0008495147151646473,-0.011363743467179279,-0.36311712454758466
0.914,12.042346327854915,-89.64167775978424,210.05642071314332,0.10107952062889142,1.8788726875324424,0.0010123363896538096,0.0010516206704974304,-0.007606006155403967,-0.3631115276430579
0.916,-0.009040880093364106,0.00048637364756434114,2.4059234441748707,0.10107611163070174,1.8788728709295959,0.0010123363896538122,0.0012537364901621132,-0.0038482696847264475,-0.363105171406565
0.918,-0.009080490483623223,0.0004884880507703125,2.416464169538269,0.10107270263217806,1.878873054320564,0.0010123363896538079,0.0014558678811017764,-9.05342087484327e-05,-0.3630980557333575
0.92,-0.009120187459753092,0.0004906069675867431,2.4270279347385233,0.10106929363332237,1.8788732377053474,0.0010123363896538022,0.0016580205512992424,0.003667200118854431,-0.36309018046510283
0.922,-36.588995790336895,35.502482887036784,63.65117954016827,-1.1777285095245886,0.604940994899906,-0.009943548891783463,-0.000697517857397207,0.004877090533259272,-0.36310948667241855
0.924,-26.4698075611145,-25.866391762763005,46.310371510001104,-0.26245625478344514,-0.30658149262485396,-0.001565469992483529,-0.0012224419746599492,0.0042639248652337055,-0.3631120290132463
0.926,0.0015076892153887758,-0.0012906958437137448,2.4588740790191594,-0.26245711497515084,-0.3065807562376326,-0.0015654699924835265,-0.0017473649796882651,0.0036507594199376584,-0.363114249481658
0.928,0.0015142194350912987,-0.0012962935671440795,2.4695300755479566,-0.2624579751647903,-0.30658001984799776,-0.0015654699924835265,-0.0022722872672073786,0.003037594366329897,-0.3631161480815453
0.93,0.0015207637505836018,-0.0013019034213062651,2.480209112069243,-0.26245883535236364,-0.3065792834559496,-0.0015654699924835275,-0.002797209231935717,0.002424429873366762,-0.3631177248162842
0.932,0.0015273221617646176,-0.0013075254063212808,2.490911188583035,-0.2624596955378707,-0.30657854706148796,-0.0015654699924835293,-0.003322131268585657,0.0018112661100026322,-0.3631189796887339
0.934,0.0015338946685317053,-0.0013131595223077643,2.5016363050893133,-0.262460555721312,-0.30657781066461254,-0.00156546999248353,-0.003847053771864273,0.0011981032451903848,-0.3631199127012365
0.936,0.0015404812707838892,-0.0013188057693847774,2.512384461588091,-0.26246141590268746,-0.30657707426532355,-0.0015654699924835208,-0.004371977136474093,0.000584941447881863,-0.3631205238556184
0.9380000000000001,0.001547081968418039,-0.0013244641476697957,2.523155658079363,-0.26246227608199574,-0.3065763378636218,-0.0015654699924835262,-0.004896901757113922,-2.821911297167886e-05,-0.3631208131531942
0.9400000000000001,0.0015536967613329858,-0.0013301346572826209,2.5339498945631287,-0.2624631362592383,-0.30657560145950624,-0.0015654699924835286,-0.005421828028479417,-0.0006413782684190971,-0.3631207805947538
0.9420000000000001,0.0015603256494257593,-0.001335817298341778,2.544767171039391,-0.26246399643441504,-0.30657486505297704,-0.0015654699924835223,-0.00594675634526399,-0.001254535849508898,-0.36312042618057444
0.9440000000000001,0.0015669686325953083,-0.001341512070965209,2.5556074875081456,-0.2624648566075254,-0.30657412864403466,-0.0015654699924835223,-0.0064716871021595615,-0.0018676916872888006,-0.3631197499104198
0.9460000000000001,11.603221533888654,-11.865802564039235,22.427457078677236,0.15088126531999596,0.1082715182232026,0.0018099391685934745,-0.006169928534402651,-0.0016511300994663657,-0.36311749881875316
0.9480000000000001,-0.0005581100406756813,0.0007777492694542951,2.5773579022247457,0.1508809140971366,0.10827200766816744,0.0018099391685934738,-0.005868170282405446,-0.0014345682219163592,-0.36311518238452783
0.9500000000000001,-0.0005604749422047834,0.0007810395080541967,2.588267341472258,0.15088056287268944,0.1082724971119931,0.0018099391685934786,-0.005566412317869467,-0.0012180060743565218,-0.3631128006073662
0.9520000000000001,-0.0005628448542926113,0.0007843366838887044,2.599199820718182,0.1508802116466547,0.10827298655467922,0.0018099391685934734,-0.005264654612495929,-0.001001443676504778,-0.3631103534868775
0.9540000000000001,-0.0005652197770070438,0.0007876407969084794,2.610155339962518,0.1508798604190321,0.10827347599622617,0.0018099391685934786,-0.004962897137985886,-0.0007848810480792996,-0.36310784102266586
0.9560000000000001,-0.0005675997104152342,0.000790951847065003,2.6211338992052573,0.15087950918982193,0.10827396543663362,0.0018099391685934788,-0.004661139866040099,-0.0005683182087984576,-0.36310526321432174
0.9580000000000001,-0.000569984654585146,0.0007942698343094447,2.6321354984464196,0.150879157959024,0.10827445487590169,0.001809939168593476,-0.00435938276835912,-0.00035175517838086236,-0.36310262006142796
0.96,-0.0005723746095841458,0.0007975947585934055,2.6431601376859866,0.15087880672663845,0.10827494431403051,0.0018099391685934758,-0.004057625816643283,-0.00013519197654536522,-0.3630999115635593
0.962,-0.0005747695754797084,0.0008009266198683081,2.654207816923961,0.15087845549266518,0.10827543375101985,0.0018099391685934755,-0.0037558689825926673,8.137137698894752e-05,-0.3630971377202798
0.964,-4.025090283185621,-11.331557935378475,21.6572876237616,0.5459627938812708,-0.03252007788876395,1.005306593617493e-05,-0.002663943492141095,1.6331630536678354e-05,-0.36309690884184226
0.966,0.00017407160767113323,0.00292239872049708,2.6763708788181644,0.5459627944672127,-0.032520068051685364,1.0053065936176746e-05,-0.0015720180142541782,-4.870830738614623e-05,-0.3630967509821252
0.968,0.4086456610086821,-0.3855124671081107,3.4549182747569454,0.5623229304418554,-0.01626832765255316,-0.00023422473492402937,-0.00044737224360704515,-8.124541394991676e-05,-0.3630971865791925
0.97,0.6164081053090122,-0.5949571411325816,3.8061981757038295,0.5857197728723332,0.007031721176163515,-0.00045182143106913583,0.0007240672350948579,-6.718184912805912e-05,-0.3630980882762515
0.972,1.5195545407738915,24.040683538740634,89.74060597413687,-0.2869964497161945,0.060604262111024876,-5.151001890094045e-05,0.00015007435175098182,5.4026703403568736e-05,-0.36309813831957305
0.974,-2.152199579118904,-6.108827924202961,13.438416749077591,-0.06215204583582119,-0.018292854647060597,7.115952318396628e-05,2.5770265210057842e-05,1.7440981812582273e-05,-0.36309799921722763
0.976,0.37694392456872694,-0.532285232303724,3.629054092467229,-0.043455011686286155,-0.003920538315670876,5.712739062977264e-06,-6.113975795145698e-05,9.599905391966847e-06,-0.36309798765308227
0.978,0.07149989962277563,-1.011212026952059,4.498537476173407,-0.0066986766363431,-0.0013520491838656839,-2.34380621129168e-06,-7.453711126109248e-05,6.895806712519699e-06,-0.3630979921572524
0.98,0.01738669683241138,-0.36521523269547124,7.452364589130541,0.006450438278427032,-0.0007366396045801562,-6.621616580631013e-09,-6.16362347038812e-05,5.422527505903515e-06,-0.3630979920701859
0.982,0.004950629496568835,0.006186199096067031,9.306471849427487,0.00618348686971064,-0.0005560056217622091,-3.7018998432385903e-10,-4.926926096432091e-05,4.31051626406915e-06,-0.36309799200926124
0.984,0.0031634550023298736,0.031686246297449885,9.68403016914031,0.005015706675380445,-0.00043988488477255864,-2.6211383204756627e-11,-3.923784761349366e-05,3.4307464953942915e-06,-0.36309799197038073
0.986,0.0024487823503751825,0.02760821550461713,9.764864389871127,0.004000961414323307,-0.000349917556058959,-1.8602755680785837e-12,-3.1235924784813826e-05,2.7309113837163386e-06,-0.36309799194572495
0.988,0.0019430760483630375,0.022189176268611045,9.785233390228747,0.003185606938786893,-0.00027852144159052017,-1.320322548039254e-13,-2.486471090722319e-05,2.1738685007572938e-06,-0.36309799193009884
0.99,0.001546173193187027,0.017681960837061538,9.79262459383559,0.0025358878570177906,-0.0002217080074084042,-9.369420347512366e-15,-1.979293519317918e-05,1.7304524860524568e-06,-0.3630979919201983
0.992,0.0012307372406618789,0.014076903877443555,9.796721768964021,0.0020186351088675863,-0.0001764848639769671,-6.655775229738772e-16,-1.5755664975439775e-05,1.3774827581549986e-06,-0.36309799191392517
0.994,0.0009796896350026158,0.011205677067149065,9.799608739564517,0.0016068837898286772,-0.00014048628305285502,-4.771178101555207e-17,-1.2541897395780237e-05,1.0965101920777815e-06,-0.3630979919099488
0.996,0.0007798547662446046,0.00891998639740912,9.801818370529757,0.001279119113904313,-0.00011183053948559128,-3.740957957814154e-18,-9.983659167970538e-06,8.728491131209671e-07,-0.36309799190743025
0.998,0.0006207823616990877,0.007100516285286939,9.803548886959733,0.0010182103155133356,-8.901986299237756e-05,2.6343493691324887e-18,-7.947238536943338e-06,6.948093871434571e-07,-0.36309799190583464
1.0,0.0004941572865303072,0.005652177261352019,9.804912287048593,0.0008105204829662552,-7.086200287289337e-05,-1.9673695130246192e-19,-6.3261975710105365e-06,5.530853814013289e-07,-0.36309799190482256
1.002,0.0003933608909324358,0.004499266832047801,9.80598808897398,0.0006451942619357604,-5.640789912087738e-05,-1.2143711795223642e-18,-5.035809047138883e-06,4.4026958316141725e-07,-0.36309799190418185
1.004,0.0003131246543486821,0.0035815237477843953,9.806837288441375,0.0005135905193214991,-4.490207665005819e-05,-8.421339590607835e-21,-4.008628008495806e-06,3.5046542986223224e-07,-0.36309799190377523
1.006,0.0002492547455497905,0.0028509789248866717,9.807507682636187,0.0004088306999000327,-3.5743158670733155e-05,4.789645110895903e-19,-3.1909666086957063e-06,2.7897911252123563e-07,-0.3630979919035177
1.008,0.00019841279548676465,0.0022694480587683538,9.808036934105479,0.0003254393042522953,-2.8452434449836422e-05,-1.3567842672381925e-18,-2.5400880001911026e-06,2.2207424362179893e-07,-0.3630979919033551
1.01,0.00015794139556381888,0.001806535675118482,9.808454761638332,0.00025905770001956584,-2.264883845299363e-05,8.337418797404558e-19,-2.0219726001519653e-06,1.767765667159305e-07,-0.3630979919032525
1.012,0.00012572519242843664,0.0014380463377299205,9.80878462423579,0.00020621630852947617,-1.8029033138631704e-05,1.324846383752528e-19,-1.609539983093004e-06,1.4071850043872783e-07,-0.3630979919031862
1.014,0.0001000803190738517,0.0011447199521508872,9.809045041364238,0.00016415325975583874,-1.4351554350436538e-05,-1.614208744650108e-18,-1.2812334635813251e-06,1.1201539173788518e-07,-0.3630979919031448
1.016,7.966637944541334e-05,0.0009112250529429787,9.809250633398932,0.00013067003716146062,-1.1424190679230846e-05,-2.3843094086223927e-19,-1.0198933892584027e-06,8.916701037943891e-08,-0.3630979919031186
1.018,6.341638771142456e-05,0.0007253574434413594,9.809412942626375,0.00010401656745752074,-9.093937114042286e-06,-1.3297766732179023e-18,-8.118602543433617e-07,7.097913615136195e-08,-0.36309799190310216
1.02,5.048099865224185e-05,0.0005774022995872467,9.809541081319036,8.279974923025861e-05,-7.238997892073926e-06,1.462421628079995e-19,-6.462607558828428e-07,5.650114036721829e-08,-0.3630979919030909
1.022,4.018411318326593e-05,0.0004596263937223871,9.809642243334523,6.591063944324736e-05,-5.76242059251406e-06,9.637751485432833e-20,-5.144394769963496e-07,4.497629918219192e-08,-0.36309799190308506
1.024,3.198754057827516e-05,0.00036587389241686936,9.809722108015693,5.2466492147223265e-05,-4.5870286990466845e-06,3.9363669485934754e-19,-4.095064927019032e-07,3.58022417840995e-08,-0.36309799190308106
1.026,2.5462868008454967e-05,0.0002912446056177202,9.809785159035126,4.176461982047919e-05,-3.651387807342528e-06,-1.0853135136383326e-19,-3.259772530609441e-07,2.8499466169415082e-08,-0.36309799190307773
1.028,2.026906869276808e-05,0.00023183786355969598,9.80983493612852,3.3245665902229656e-05,-2.9065946164865224e-06,-4.433031091831286e-19,-2.5948592125648446e-07,2.2686276936442345e-08,-0.3630979919030755
1.03,1.6134676996704202e-05,0.00018454863912255597,9.809874233815584,2.646436879295485e-05,-2.3137208949421464e-06,-1.6995539511384088e-18,-2.0655718367057522e-07,1.8058835146558147e-08,-0.36309799190307507
1.032,1.2843599683937167e-05,0.00014690525528175566,9.809905258294956,2.1066289293597427e-05,-1.8417788121086833e-06,-4.2863422658643877e-19,-1.6442460508338054e-07,1.4375277522340817e-08,-0.36309799190307485
1.034,1.0223821268285744e-05,0.00011694019688273416,9.809929751298014,1.676928507440862e-05,-1.4661012923374294e-06,-1.1948464473188426e-18,-1.3088603493456334e-07,1.1443074937665975e-08,-0.3630979919030746
1.036,8.138413294560746e-06,9.308727379959874e-05,9.809949087874376,1.3348763895350719e-05,-1.1670527338936136e-06,1.5662157677390426e-18,-1.0418850714386188e-07,9.108969469878768e-09,-0.3630979919030742
1.038,6.478377259920532e-06,7.409976050395768e-05,9.809964353589846,1.0625944801246601e-05,-9.290027161738133e-07,2.3514682015638224e-18,-8.293661754136848e-08,7.250964037531173e-09,-0.36309799190307335
1.04,5.156947682666011e-06,5.898523299803353e-05,9.809976405468365,8.458513745684746e-06,-7.39509041312345e-07,-7.767000101290793e-19,-6.601959004999924e-08,5.77194595490646e-09,-0.3630979919030743
1.042,4.105057316143305e-06,4.6953697133048245e-05,9.809985920109177,6.7331852512853384e-06,-5.886674081585492e-07,-9.33489750945752e-19,-5.25532195474285e-08,4.594611138589373e-09,-0.3630979919030739
1.044,3.2677266707189082e-06,3.7376298699085535e-05,9.809993431665857,5.359781277571493e-06,-4.685937531634953e-07,8.634400011225636e-19,-4.1833656992285544e-08,3.657423632262371e-09,-0.36309799190307407
1.046,2.6011908149474336e-06,2.9752453766776784e-05,9.80999936184298,4.266517892731441e-06,-3.730121685674087e-07,2.3627576146428624e-19,-3.33006212068226e-08,2.9113992951275624e-09,-0.3630979919030737
1.048,2.070611920493233e-06,2.368368560741509e-05,9.810004043560212,3.396253314184724e-06,-2.96926873363403e-07,-1.3039659109799063e-18,-2.6508114578453197e-08,2.3175455484007492e-09,-0.3630979919030742
1.05,1.648258091182237e-06,1.885279676541718e-05,9.810007739653255,2.7035012778635085e-06,-2.3636110354415187e-07,6.601673544789144e-19,-2.110111202272612e-08,1.8448233413124538e-09,-0.36309799190307324
1.052,1.3120540177800048e-06,1.5007290346556897e-05,9.810010657621204,2.152053596442026e-06,-1.8814925917158665e-07,6.808988342632943e-20,-1.6797004829842082e-08,1.4685248229692783e-09,-0.3630979919030735
1.054,1.0444272995966214e-06,1.1946172561058064e-05,9.810012961279826,1.7130876618903839e-06,-1.497714437522885e-07,1.0495407027073013e-18,-1.3370829506061328e-08,1.1689819354647004e-09,-0.3630979919030736
1.056,8.313898615179587e-07,9.509447485001602e-06,9.810014779957879,1.3636599667408176e-06,-1.192217568497838e-07,3.4103868021087597e-19,-1.064350957257969e-08,9.305384217651314e-10,-0.3630979919030738
1.058,6.618067792709935e-07,7.5697543079514224e-06,9.810016215757074,1.0855069162318216e-06,-9.490345443213796e-08,7.706894949113637e-19,-8.47249574011605e-09,7.407315129008545e-10,-0.36309799190307385
1.06,5.268144521362808e-07,6.025710752909741e-06,9.810017349281315,8.640902393909529e-07,-7.55454881489517e-08,1.2586740966843334e-18,-6.744315261334143e-09,5.896405366029514e-10,-0.36309799190307385
1.062,4.193573194289881e-07,4.796614131367422e-06,9.810018244169443,6.878371110397e-07,-6.013606861036859e-08,9.712581420251327e-20,-5.368641039254744e-09,4.693683993822143e-10,-0.36309799190307385
1.064,3.338187561131569e-07,3.818222946253883e-06,9.81001895066021,5.475352800967869e-07,-4.786979098976938e-08,2.1755329912960883e-18,-4.273570479061168e-09,3.736288174026755e-10,-0.36309799190307385
1.066,2.657279281366875e-07,3.039399517859034e-06,9.810019508415948,4.3585156567956933e-07,-3.810553261983606e-08,1.4679484794298833e-19,-3.4018673477020297e-09,2.9741775216300296e-10,-0.36309799190307385
1.068,2.1152594424614366e-07,2.4194367890024056e-06,9.810019948749478,3.4694858064349607e-07,-3.0332943561864406e-08,1.7051188457296404e-18,-2.707970186415038e-09,2.367518650392738e-10,-0.36309799190307385
1.07,1.6837990498765066e-07,1.9259312543071457e-06,9.810020296381213,2.7617961503485044e-07,-2.4145769567786254e-08,-4.0994814766957675e-19,-2.1556109563453365e-09,1.8846032590370117e-10,-0.36309799190307385
1.072,1.3403454439703577e-07,1.5330887618460874e-06,9.81002057082705,2.1984577317014043e-07,-1.922062692036553e-08,-4.0012378303399857e-19,-1.7159194100050543e-09,1.5001907206297015e-10,-0.36309799190307385
1.074,1.0669480081891073e-07,1.2203763310047417e-06,9.810020787495198,1.750026502151513e-07,-1.5300091956006718e-08,-4.2303365494098097e-19,-1.3659141095747516e-09,1.1941888815095686e-10,-0.36309799190307385
1.076,8.493165481600577e-08,9.714495842931566e-07,9.810020958548758,1.393064207092001e-07,-1.217925078517603e-08,9.17997824324615e-19,-1.087301268156351e-09,9.506038658060462e-11,-0.36309799190307385
1.078,6.760770266666628e-08,7.732978662420753e-07,9.810021093591121,1.1089134006555082e-07,-9.694983805630837e-09,-3.5156235551185616e-19,-8.655185880252493e-10,7.56704189693429e-11,-0.36309799190307385
1.08,5.38174494400781e-08,6.155640726919041e-07,9.810021200203636,8.827223858426664e-08,-7.717444182017618e-09,-1.6149432669535987e-18,-6.889741108567158e-10,6.023553060530762e-11,-0.36309799190307385
1.082,4.283993968169204e-08,4.900041792558645e-07,9.81002128437112,7.026687590329985e-08,-6.143276644654233e-09,1.4077045159714096e-19,-5.48440359050116e-10,4.794897731599907e-11,-0.36309799190307385
1.084,3.4101706853540366e-08,3.900553716795581e-07,9.810021350819445,5.593416451490508e-08,-4.890198323974485e-09,-1.7681076582052045e-18,-4.365720300203057e-10,3.816858066805013e-11,-0.36309799190307385
1.086,2.7145740478933178e-08,3.104937419643427e-07,9.810021403278373,4.452497098410486e-08,-3.89271924210259e-09,1.238721679931562e-18,-3.4752208805209596e-10,3.038314218384493e-11,-0.36309799190307385
1.088,2.160870337630129e-08,2.471605857545811e-07,9.81002144469341,3.544297476690116e-08,-3.098700390435184e-09,5.249342755685193e-19,-2.7663613851829366e-10,2.4185741402974522e-11,-0.36309799190307385
1.09,1.720105451013919e-08,1.9674597415970366e-07,9.810021477389629,2.8213479867568837e-08,-2.4666420096787906e-09,1.1322900107966058e-19,-2.2020917878315593e-10,1.9252457383616946e-11,-0.36309799190307385
1.092,1.3692478818194064e-08,1.5661463576946662e-07,9.810021503202336,2.2458623968992363e-08,-1.9635073871186575e-09,3.842106304771727e-20,-1.7529193084517116e-10,1.5325442609379607e-11,-0.36309799190307385
1.094,1.0899521533317346e-08,1.2466906302175046e-07,9.810021523580776,1.787761851108708e-08,-1.563000904777294e-09,9.71177071001886e-19,-1.3953669382299695e-10,1.2199440799825033e-11,-0.36309799190307385
1.096,8.676340556432467e-09,9.923965650977113e-08,9.810021539668979,1.4231024924683645e-08,-1.2441859015324348e-09,9.377036383015384e-19,-1.1107464397362965e-10,9.711068996760154e-12,-0.36309799190307385
1.098,6.906502742541203e-09,7.899722050012594e-08,9.810021552370387,1.132824621037157e-08,-9.904041910232337e-10,-2.0854442059401521e-19,-8.841815155288649e-11,7.730260614713676e-12,-0.36309799190307385
1.1,5.497826900604304e-09,6.288371025862625e-08,9.810021562397747,9.017563678387099e-09,-7.883847137392867e-10,3.9333859057615517e-19,-7.038302419611229e-11,6.153491187235099e-12,-0.36309799190307385
1.102,4.376328829386047e-09,5.0057006551546163e-08,9.810021570313964,7.178202607778529e-09,-6.27575027141086e-10,3.1169888602110177e-19,-5.6026618980555225e-11,4.898341132952925e-12,-0.36309799190307385
1.104,3.4836812100871368e-09,3.984665266126188e-08,9.81002157656347,5.714024277431787e-09,-4.995660141576504e-10,3.309592503744369e-19,-4.459857042569164e-11,3.899209104637615e-12,-0.36309799190307385
1.106,2.773139755383705e-09,3.171883393484575e-08,9.810021581497445,4.548505285175401e-09,-3.976660653014795e-10,-8.955091406424602e-19,-3.550155985534082e-11,3.1038769740346558e-12,-0.36309799190307385
1.108,2.2075015363313877e-09,2.52489970147685e-08,9.81002158539279,3.6207226070199277e-09,-3.165506906867786e-10,4.10008982517331e-19,-2.826011464130096e-11,2.4707755926611e-12,-0.36309799190307385
1.11,1.7571708492906282e-09,2.0098868784058686e-08,9.810021588467933,2.882183041352822e-09,-2.5198283919089766e-10,1.7227724970663108e-18,-2.2495748558595308e-11,1.9668099142793024e-12,-0.36309799190307385
1.112,1.3987802493580002e-09,1.599914783736024e-08,9.810021590895861,2.2942890933335154e-09,-2.0058417908773192e-10,-8.545233617291193e-19,-1.7907170371928276e-11,1.5656415561038387e-12,-0.36309799190307385
1.114,1.1134244073411649e-09,1.2735749020226669e-08,9.81002159281257,1.826309792444546e-09,-1.5967099632268363e-10,2.059163986748728e-18,-1.4254550787039181e-11,1.246299563458469e-12,-0.36309799190307385
1.116,8.863461713305592e-10,1.0137929176345262e-08,9.810021594325644,1.4537882394136708e-09,-1.2710190142349997e-10,-2.401826380389132e-19,-1.1346974308211837e-11,9.920957606114697e-13,-0.36309799190307385
1.118,7.055947106899541e-10,8.070031212314978e-09,9.810021595520437,1.1572522498585064e-09,-1.0117459619531421e-10,3.447449085289184e-19,-9.032469808494821e-12,7.897465682208409e-13,-0.36309799190307385
1.12,5.615559292911022e-10,6.424007527908811e-09,9.810021596463454,9.212000007138363e-10,-8.053998456307741e-11,-1.9002639238425967e-18,-7.190069807067147e-12,6.286665990946852e-13,-0.36309799190307385
1.122,4.4712750939019326e-10,5.113584240302052e-09,9.810021597207855,7.33299635099033e-10,-6.411013945345975e-11,1.7312559110569374e-18,-5.7234705368690805e-12,5.004463201877654e-13,-0.36309799190307385
1.124,3.558485741667707e-10,4.070626309981725e-09,9.810021597795558,5.837231447967217e-10,-5.103432564137086e-11,2.3508825127718865e-18,-4.556024247275637e-12,3.983776689050236e-13,-0.36309799190307385
1.1260000000000001,2.8331065618629254e-10,3.2402851584081572e-09,9.810021598259766,4.646577840559525e-10,-4.062397247518727e-11,2.1087284348795236e-18,-3.626708679163731e-12,3.171297239546488e-13,-0.36309799190307385
1.1280000000000001,2.2553305325409576e-10,2.5793260275777587e-09,9.810021598626175,3.6987961077746736e-10,-3.2336679600804715e-11,2.439511840574848e-18,-2.8869494576087954e-12,2.524563647530391e-13,-0.36309799190307385
1.1300000000000001,1.794831997768579e-10,2.0531861585779486e-09,9.810021598915496,2.9443457559621115e-10,-2.574147044379331e-11,-2.4904926195289263e-19,-2.298080306416373e-12,2.0097342386545238e-13,-0.36309799190307385
1.1320000000000001,1.4284546238711673e-10,1.6344726501324966e-09,9.810021599143855,2.3437535000043053e-10,-2.049256137999364e-11,1.3097982196823088e-18,-1.8293296064155115e-12,1.5998830110546488e-13,-0.36309799190307385
1.1340000000000001,1.1382367065909183e-10,1.3010196194673406e-09,9.81002159932402,1.8656897844164745e-10,-1.6310048312952716e-11,3.423757224524608e-19,-1.4561916495322167e-12,1.273682044795594e-13,-0.36309799190307385
1.1360000000000001,9.048770642894988e-11,1.0356469997679187e-09,9.810021599466193,1.4851376753992803e-10,-1.2985025100648095e-11,4.662351585490019e-19,-1.1591641144523601e-12,1.0139815427826319e-13,-0.36309799190307385
1.1380000000000001,7.2092713998309e-11,8.244300997223519e-10,9.810021599578773,1.1821980012551517e-10,-1.0335925958033987e-11,-1.7433107576434843e-19,-9.227245142013297e-13,8.072630236219504e-14,-0.36309799190307385
1.1400000000000001,5.738530692116513e-11,6.562260836408907e-10,9.810021599667179,9.410653331523789e-11,-8.227267196356973e-12,9.89177770966324e-19,-7.345114475708536e-13,6.427176796948105e-14,-0.36309799190307385
1.1420000000000001,4.565174568487745e-11,5.223726131126964e-10,9.81002159973738,7.491177280056017e-11,-6.549756365179678e-12,-3.587785014402806e-19,-5.846879019697331e-13,5.117225523912165e-14,-0.36309799190307385
1.1440000000000001,3.6382966289673514e-11,4.1583175172193804e-10,9.810021599792654,5.963192574781991e-11,-5.2128151132369e-12,8.102966841922279e-19,-4.654240504740931e-13,4.074662501264785e-14,-0.36309799190307385
1.1460000000000001,2.8931805699892766e-11,3.310097114790011e-10,9.810021599836222,4.746882733649174e-11,-4.149698681161999e-12,3.794256083036351e-20,-3.7048639580110955e-13,3.244722765032383e-14,-0.36309799190307385
1.1480000000000001,2.3028607496774556e-11,2.63557030682679e-10,9.810021599870929,3.77843640497783e-11,-3.303499208794075e-12,-4.59972573864434e-20,-2.949176677015529e-13,2.5840229232735654e-14,-0.36309799190307385
1.1500000000000001,1.835457512984242e-11,2.0972612371365274e-10,9.810021599898102,3.007791187200062e-11,-2.6290569350269614e-12,1.3797376695521844e-18,-2.3476184395755166e-13,2.0582115362681682e-14,-0.36309799190307385
1.1520000000000001,1.458819897702827e-11,1.6693965268710675e-10,9.810021599919413,2.3943652532945614e-11,-2.0929519661537943e-12,1.3129197785408119e-18,-1.8687453889166038e-13,1.6396211430374097e-14,-0.36309799190307385
1.154,1.1636419580196567e-11,1.3292598166437203e-10,9.81002159993629,1.905923132741678e-11,-1.6653585402987176e-12,1.744053957827399e-18,-1.4875607623682676e-13,1.3065494349776667e-14,-0.36309799190307385
1.156,9.184854733455298e-12,1.0580259966086834e-10,9.810021599949836,1.517148627823759e-11,-1.3278206102672798e-12,-7.419284613754906e-19,-1.1841310368035156e-13,1.04098531292421e-14,-0.36309799190307385
1.158,7.370552744015751e-12,8.424652330143769e-11,9.81002159996052,1.2075845198543137e-11,-1.056952927924369e-12,4.309752626296395e-21,-9.426141328326526e-14,8.295947273393363e-15,-0.36309799190307385
1.16,5.895819890136844e-12,6.703974288090488e-11,9.810021599968708,9.61240987177458e-12,-8.403123912994403e-13,2.415574025662372e-18,-7.503659353971609e-14,6.6153224907944736e-15,-0.36309799190307385
1.162,4.673300413457589e-12,5.335375374811042e-11,9.810021599975336,7.651932149327214e-12,-6.685634231317937e-13,1.279682351323031e-18,-5.973272924106164e-14,5.278195644530889e-15,-0.36309799190307385
1.164,3.689754716131115e-12,4.245268872912513e-11,9.810021599980542,6.091998184563544e-12,-5.329788039553783e-13,5.413319349826596e-19,-4.754873287193456e-14,4.212238036620122e-15,-0.36309799190307385
1.166,2.949269257262202e-12,3.384193348881689e-11,9.810021599984653,4.848458788770859e-12,-4.2458157264793767e-13,7.556630332006107e-19,-3.7851815294392817e-14,3.3630748913242477e-15,-0.36309799190307385
1.168,2.374284930367271e-12,2.6886084701552552e-11,9.810021599987712,3.860494328436215e-12,-3.3730339072705263e-13,6.685336388825884e-19,-3.0130826637520386e-14,2.688468109870139e-15,-0.36309799190307385
1.17,1.8647431217698054e-12,2.1446199392289556e-11,9.810021599990385,3.0724917425583154e-12,-2.687693745024932e-13,-1.9137363904851474e-19,-2.398584315240376e-14,2.150929360865152e-15,-0.36309799190307385
1.172,1.4942629699170067e-12,1.7067698498155392e-11,9.810021599992197,2.445335357848191e-12,-2.1384672036312192e-13,9.198735551006745e-19,-1.909517243670737e-14,1.7232359201389065e-15,-0.36309799190307385
1.174,1.2250275813547778e-12,1.35269869724121e-11,9.810021599994087,1.948237107507463e-12,-1.6882644383595506e-13,4.086226105148249e-20,-1.5198698221692446e-14,1.3855830324669962e-15,-0.36309799190307385
1.176,9.07887552324481e-13,1.0813710308117643e-11,9.810021599995334,1.5508678885339043e-12,-1.3542199076442848e-13,-6.966189545485654e-19,-1.2096962444624635e-14,1.114739050938138e-15,-0.36309799190307385
1.178,7.356587064853322e-13,8.60618289471392e-12,9.810021599996192,1.2346419905040153e-12,-1.0838486612669536e-13,1.2471248595178452e-18,-9.6276784636166e-15,8.979693186847468e-16,-0.36309799190307385
1.18,5.740459509913544e-13,6.88129715459154e-12,9.810021599996983,9.818130405899077e-13,-8.725948858940952e-14,1.4372120238143767e-18,-7.664052382436782e-15,7.234503415059273e-16,-0.36309799190307385
1.182,5.065991701135752e-13,5.4330732396577384e-12,9.810021599997693,7.821662678411278e-13,-6.862358716309118e-14,-7.772293569319934e-20,-6.099719846754528e-15,5.862031671797451e-16,-0.36309799190307385
1.184,3.9066296422101067e-13,4.322840450112672e-12,9.810021599998315,6.233287861864233e-13,-5.4246467144231523e-14,5.084027952209972e-19,-4.85306227438168e-15,4.777102328912811e-16,-0.36309799190307385
1.186,3.0665207911943664e-13,3.498886335804433e-12,9.810021599998782,4.947600461862856e-13,-4.2986157448532533e-14,5.225159910630356e-19,-3.863542182009108e-15,3.9173791799421585e-16,-0.36309799190307385
1.188,2.6418824449725873e-13,2.7302228866199268e-12,9.810021599998777,3.9445541924042076e-13,-3.3261354085301004e-14,1.7293725796999401e-18,-3.074631343528266e-15,3.252152098236137e-16,-0.36309799190307385
1.19,1.6745692155067133e-13,2.2095538958286932e-12,9.810021599998924,3.132635159226782e-13,-2.7076997018721273e-14,1.4538930220470697e-18,-2.448104311682909e-15,2.7106121578617117e-16,-0.36309799190307385
1.192,1.604175082410304e-13,1.7242398548417297e-12,9.810021599999313,2.498893930090664e-13,-2.1166846238191097e-14,7.715000617768351e-19,-1.9483255256647753e-15,2.287275233097889e-16,-0.36309799190307385
1.194,8.582299277895747e-14,1.3916394671048814e-12,9.81002159999945,1.9876944476083604e-13,-1.7978026407503864e-14,4.875606693357686e-19,-1.5507866361431035e-15,1.9277147049478096e-16,-0.36309799190307385
1.196,9.84100185583367e-14,1.087159030567087e-12,9.81002159999947,1.5881813602849492e-13,-1.434250064293969e-14,1.7302061690563213e-18,-1.2331503640861136e-15,1.6408646920890136e-16,-0.36309799190307385
1.198,8.109001541690614e-14,8.98172448058578e-13,9.810021599999619,1.258238746441099e-13,-1.1347416869127277e-14,1.041429469127853e-18,-9.815026147978936e-16,1.4139163547064666e-16,-0.36309799190307385
