sim_time,acc_x,acc_y,acc_z,gyro_x,gyro_y,gyro_z,roll_gt,pitch_gt,yaw_gt
0.002,-0.0588556318034169,-445.7091972300817,-70.92993477014939,-0.8062841034178361,-0.09621073716775536,0.47771863938372333,0.0,0.0,0.0
0.004,-0.0038946995693758097,0.03171587118082191,-0.003694278594017697,0.9350657522236399,0.4047190822460125,-0.19871107835552332,0.0,0.0,0.0
0.006,-0.0007245738281698229,0.05067233180882714,0.0028273022621289733,0.12805905988345925,-0.2513816106777233,-0.27408403936393094,0.0,0.0,0.0
0.008,0.012295050429698856,0.012632528446331604,-0.036898143742832214,-0.1675915832306321,-0.6950209331589376,-0.37685012351476455,0.0,0.0,0.0
0.01,-0.010007069993090355,0.020712485349129287,-0.0059060675014927615,-0.8728207605662524,0.06755760334709582,0.3615393890546897,0.0,0.0,0.0
0.012,-0.030209747704664815,0.0010334568677574654,0.012756412699198524,0.16298656045663085,0.5253179730067017,-0.27919511912484696,0.0,0.0,0.0
0.014,0.020455500390997087,-0.026390063070590764,-0.0036617852756420455,-0.3609215567729722,0.4809980169277915,-0.633866922076967,0.0,0.0,0.0
0.016,0.032974323294903296,0.003679418372458386,-0.0018685684691793093,-0.4021617468194241,0.0019107213219061521,0.38111841332463475,0.0,0.0,0.0
0.018,-0.0460573760389522,-0.022465701775138527,-0.046768859641431834,0.5698653711103043,-0.019882678286637753,0.13463115409497495,0.0,0.0,0.0
0.02,-0.022382827425815998,-0.0001957425010033734,-0.030804972014954628,0.682849710537077,0.521852087643886,0.4580205372908722,0.0,0.0,0.0
0.022,0.00945235214520978,0.013382426190299262,-0.028439436555078766,0.46431929370389025,-0.7731132138641644,0.809332184828017,0.0,0.0,0.0
0.024,-0.014990172637546447,0.023870845783821384,-0.04316479904101885,-0.22106132818413338,-0.717955480964755,-0.4781510013878837,0.0,0.0,0.0
0.026,0.021223996179998,0.0144982259866722,-0.013361774783883376,0.10376955878184889,-0.48377099436744314,0.5292723766568757,0.0,0.0,0.0
0.028,-0.0028673094488734967,0.008039036176245287,0.04036968167013341,-0.22611489706442542,-0.7137614482707687,-0.13723406992916026,0.0,0.0,0.0
0.03,0.018135915891258104,-0.001711752972752088,0.007057009747659033,-0.021437775270838916,0.1398352760380747,0.13850575858132982,0.0,0.0,0.0
0.032,0.00906914568249198,-0.013578103580896894,0.054197914437219,0.3257639672568896,0.4942566160551068,0.5070848858546947,0.0,0.0,0.0
0.034,-0.04655534996159488,-0.023310992497659756,-0.03244038184085647,-0.39672670259998954,0.30077217962764136,0.3733806742444092,0.0,0.0,0.0
0.036,-0.02204626762596714,0.008198355024236052,-0.07988635543633708,1.1509019800485603,0.16102903698709814,-0.18392847613380411,0.0,0.0,0.0
0.038,0.050033844422441166,-0.02078038771056344,-0.008156689026345747,0.10470719349586659,-0.1824146091940684,0.21138766422981736,0.0,0.0,0.0
0.04,0.012339765532411517,-0.009784781731393145,-0.0002026068461163915,0.33980355000832546,0.7657198426921815,-0.15689886774013104,0.0,0.0,0.0
0.042,0.06727055851863786,-0.04724545179112736,-0.017119249724248053,0.06780605571861205,0.02576312252855559,0.9787800645958602,0.0,0.0,0.0
0.044,0.007743394455278805,0.03269904715150336,-0.0038012979044750074,0.4393508324062499,-0.7876341636393326,1.4335142753885546,0.0,0.0,0.0
0.046,-0.010559634641120768,0.0035755159779422632,0.031643294836550526,-0.9663826098373789,0.1923815141041604,-0.6567129142488314,0.0,0.0,0.0
0.048,0.021101852112597325,0.012109911830566278,293.2151665872355,-0.333870267640176,0.4419835350926872,-0.00043783652130480134,0.0,0.0,0.0
0.05,-0.012203583612582057,-0.005776835384230759,0.03026919682165005,0.09670217703712873,0.19675499573209906,0.0699823055614127,0.0,0.0,0.0
0.052,0.02537004834597451,-0.04426406308344427,0.02547595459390099,-0.393863659417096,-0.15570229921129147,0.22263045043022875,0.0,0.0,0.0
0.054,-0.026816913186126397,0.03121549253601659,0.02132836153849711,1.1280259697497612,0.9127924541198754,0.018495162201367,0.0,0.0,0.0
0.056,0.014777488406658393,0.027758550651612608,-0.020509384056336934,0.3046210083859225,-0.8386217146798869,0.9424206126832863,0.0,0.0,0.0
0.058,0.02589787625366493,-0.024641576802075356,0.007181560997545569,-0.421037632450647,-0.14552800790840748,-0.39515461760045434,0.0,0.0,0.0
0.06,0.0036797632397060753,0.02598089943682226,-0.006961254768109267,-0.25026658519436723,-0.019706492863649026,-0.28419547842663956,0.0,0.0,0.0
0.062,0.06601954724393792,0.033558114371717455,0.011312957487526558,-0.6781991269249926,-0.04042882701299446,-0.16837423123586423,0.0,0.0,0.0
0.064,0.028841520482034817,-0.027514288867604427,-0.02145440504936829,-0.1904817816234856,0.7606061324800985,-0.8493426068739072,0.0,0.0,0.0
0.066,-0.014394117625822326,-0.0026361579217987824,0.02361783072057215,-0.5362804382139239,-0.2057968831254998,0.6102955895631836,0.0,0.0,0.0
0.068,0.0043024861954807005,-0.010573592043645849,0.05740309981329469,-0.31215397793513366,0.5432636035317887,-0.665050128577199,0.0,0.0,0.0
0.07,0.007560529294167773,0.019984441494958875,0.03215524947785524,-0.6154787375913418,0.3910723930738407,-0.03992476893624071,0.0,0.0,0.0
0.072,-0.012317893290745972,-0.012744566898046629,0.01625276348774949,1.181929795841194,0.035379916624152526,-0.3648289059054134,0.0,0.0,0.0
0.074,0.0032314899159332604,0.025376475175125642,83.86207334802364,0.6334598312927818,-0.27079524361026225,-0.3898562855071117,0.0,0.0,0.0
0.076,0.01366132640379981,0.06857738049216221,0.900900811883755,0.2651955816763216,-0.2602402847135586,-0.4580975285087766,0.0,0.0,0.0
0.078,0.01822555462286627,0.006426259628017415,7.488668226981502,-0.7747901737961643,0.3401793734662374,-0.370658712274521,0.0,0.0,0.0
0.08,0.027840497801745887,-0.08912754880240913,8.931932185712663,0.02403518147946688,0.602268726767904,-1.0164800412433472,0.0,0.0,0.0
0.082,0.06707556779315683,0.0196015328783392,9.308541522465031,0.7654555042977618,-0.17443342261965317,0.9110563411599704,0.0,0.0,0.0
0.084,0.03155891710848038,0.018785728084042372,9.422749160399507,0.05620376964774511,0.1927801947135919,-0.046475023079972005,0.0,0.0,0.0
0.086,0.024984822867630718,0.04015792188062416,9.525588477366195,-0.37565120165948485,-0.214155410598142,0.033643911989894075,0.0,0.0,0.0
0.088,0.015336880609177131,-0.023202297911506402,9.62376944386352,0.16994375895721472,-0.042186348632410164,-0.557970647316232,0.0,0.0,0.0
0.09,0.029928302281060557,-0.026040722428765026,9.638037709458604,0.07051119771571483,0.9220362733112416,1.2878596129453406,0.0,0.0,0.0
0.092,0.02826031232447367,0.020991258719702106,9.667298314833747,-0.20735161638988484,0.5002842780297349,-0.7632485243599069,0.0,0.0,0.0
0.094,7.204029944105062e-05,0.0176764820742456,9.702367878952028,-0.6120646393238734,-0.27282041195301954,-0.4147951207131261,0.0,0.0,0.0
0.096,0.02517071368282979,0.019066288036687043,9.743620788320804,-0.9948989288724684,0.2085299361595988,-0.09346681419062026,0.0,0.0,0.0
0.098,0.059500098977708846,-0.008626054998265966,9.721307078008651,-0.2913738229120431,0.13419126535419135,-0.31592391581749457,0.0,0.0,0.0
0.1,-0.006370091046085963,0.056785345793331755,9.772583595048957,0.368108041545088,0.31149080863532896,-0.8789252123858352,0.0,0.0,0.0
0.102,0.07482409367160367,0.00015115245110900854,9.746546865187975,0.1502284956514849,0.007730092453172776,-0.10013936183554821,0.0,0.0,0.0
0.104,-0.06062968483429921,0.03851669017678918,9.798405505540279,-1.5658541442186178,0.16589354888588076,0.4120323197118497,0.0,0.0,0.0
0.106,-0.05145872095362112,0.07929592011994928,9.790854259649127,0.5511323305386835,-0.2655659480493452,-0.11522241817046139,0.0,0.0,0.0
0.108,0.010087345715497907,0.017486466135369437,9.748359849830049,-0.4921889958109231,-0.7760161162555836,0.45556217359609574,0.0,0.0,0.0
0.11,-0.011034011368374614,-0.037856946490509906,9.800973702495247,0.14422487970446626,-0.6317262654572439,-0.372816651969604,0.0,0.0,0.0
0.112,-0.001812983696716578,-0.03716738097298844,9.788499609171966,0.266506420740294,0.11747698572564386,-0.10166272695357163,0.0,0.0,0.0
0.114,-0.02551824898805331,-0.016224547442423933,9.785817586114453,-0.5275438589725613,0.3775354887953903,-0.5646751060373408,0.0,0.0,0.0
0.116,-0.039423793255106976,0.019040982471130657,9.826570931404369,-0.06568799802860337,-0.1910048680577799,0.844990640576221,0.0,0.0,0.0
0.118,-0.05777414328232293,0.006923561620934976,9.783861944736657,0.15388456401210465,-0.2816504542872439,-1.2746561457077419,0.0,0.0,0.0
0.12,-0.03615455939321546,-0.009430467126622313,9.781095093619582,0.2612588342720083,-0.13998369719820697,-0.2645574067065437,0.0,0.0,0.0
0.122,0.022842317948467104,-0.03541658636829568,9.820267801597591,0.9036593369996564,0.349971250232967,0.23293606543993325,0.0,0.0,0.0
0.124,0.03589289277419981,-0.004067415481747873,9.824416806861723,0.6357750137034032,-0.17344895787833234,-0.37916864218021734,0.0,0.0,0.0
0.126,0.017876523038223888,-0.003801852689176098,9.791238189089485,-0.1081288747972092,-0.03239884706493986,0.5209140072423064,0.0,0.0,0.0
0.128,-0.0010246910189454085,0.03777252229546975,9.753566452553686,0.9478235660307968,-0.7636294442328684,0.21930688287951716,0.0,0.0,0.0
0.13,-0.024209631192912407,-0.03432580555918148,9.847706599572232,-0.1838329206233024,-0.47430261662487005,-0.3943253548263003,0.0,0.0,0.0
0.132,0.021115417797927503,0.007468450109414824,9.783359166002386,-0.6136295510737838,-0.12345541286810342,-0.4367064700081793,0.0,0.0,0.0
0.134,-0.04497660887057874,0.014842140316122368,9.84155353841638,-0.39815331964696987,0.1875466279357746,0.5114921084469253,0.0,0.0,0.0
0.136,0.04505464390603406,0.03694805379117443,9.764432287421426,-0.335716408066977,1.2893220726453074,0.039479195025117916,0.0,0.0,0.0
0.138,0.014102261961777643,0.024422023401325044,9.862963456973468,0.3506692510333243,-0.153778604071871,0.027128460825979785,0.0,0.0,0.0
0.14,0.046136470299772185,-0.07040860794880312,9.89050413714334,0.11413941396058555,-0.8136966355504303,0.6116510200276811,0.0,0.0,0.0
0.142,-0.029123836930943087,0.030288588610819553,9.823913113226233,-0.6124394959759243,-0.15467057017881886,-1.0114023806323478,0.0,0.0,0.0
0.144,0.0006836452077097079,0.015196639165617452,9.758039144152946,-0.15668708740975112,-0.600394928338655,-0.4340661331556817,0.0,0.0,0.0
0.146,0.040817309561470054,0.00366292999140156,9.862220056003455,0.17038796343053317,0.1964929132705688,-1.0221877997410052,0.0,0.0,0.0
0.148,0.025905742123047925,-0.056667914066572796,9.782217907275859,-0.48524435866703075,-0.465977123942978,-0.35055322303417613,0.0,0.0,0.0
0.15,0.02069987864441456,0.07242711567449192,9.814111093951325,-0.14320045581418453,0.6311019850467809,-0.1149714176634377,0.0,0.0,0.0
0.152,0.017307233984747043,0.045652126915528245,9.84534996185644,-0.14623445339576893,0.8206264405710957,-0.18114977549725195,0.0,0.0,0.0
0.154,-0.004973008028637286,-0.003153478611018612,9.814925238021702,-0.45121017553092013,-0.27652800250372056,-0.6850658990492189,0.0,0.0,0.0
0.156,-0.03917063108414542,-0.04246727235782435,9.73112250893027,-0.11892903083507013,-0.0735157983022584,-0.8002984039043443,0.0,0.0,0.0
0.158,-0.026470717007621124,-0.02463375852505701,9.79383233070515,-0.07033107533117819,-0.18548649022349936,0.4736223745855037,0.0,0.0,0.0
0.16,0.040154857772866766,0.012976278473049963,9.783212648691821,-0.5008373366876812,-0.6117810653477359,0.1775968453338318,0.0,0.0,0.0
0.162,0.0017308913472084617,0.051773980446542085,9.82903405058913,0.04206332022703708,-1.2174726102551072,0.11399248298523122,0.0,0.0,0.0
0.164,-0.02129657293754949,0.029927787178751254,9.784137391115092,-0.4525431860850149,0.21026750514229778,0.3080309641042441,0.0,0.0,0.0
0.166,0.04312332621665593,-0.03300384773101469,9.770032212759373,-0.11294738100156382,0.2893735203561919,-1.0648466724633316,0.0,0.0,0.0
0.168,-0.05205004488070497,-0.0066271497054917,9.82434520359293,-0.4147835255506496,0.26581906006052836,-0.7867556304175993,0.0,0.0,0.0
0.17,0.026174246552627043,0.021554782502796566,9.818727813366827,0.1962405424832741,-0.1298829642736263,-0.16230633146902115,0.0,0.0,0.0
0.172,0.007183283332020659,-0.046435568292982385,9.762199893196595,0.2597761689339293,-0.10725671409491157,0.34117051427901973,0.0,0.0,0.0
0.174,0.024519518637417696,0.0068642811394305486,9.78635758111868,0.31493456612528,-0.2521128122677243,-0.2075994832300777,0.0,0.0,0.0
0.176,0.004898017163336278,0.024765596737315494,9.833435052504932,-0.9155709090829627,0.2531767522026371,-0.334857275495846,0.0,0.0,0.0
0.178,0.023679895746528505,0.0027650623920860737,9.846865054825612,-0.37811178342498025,0.7036385723915107,-0.67974867644725,0.0,0.0,0.0
0.18,0.032406666933932037,-0.007630267881489113,9.84959220186341,0.5113289031148723,0.2180928858586949,1.030069689373441,0.0,0.0,0.0
0.182,0.020594688900708872,-0.009662770032304252,9.756643985191404,-0.0558019471932161,0.7097788682892672,0.18123525671472276,0.0,0.0,0.0
0.184,-0.016273675437392818,0.03326284274538067,9.809628472458916,0.3901962405654641,0.19787869419829426,-0.8019181055509738,0.0,0.0,0.0
0.186,0.022953058607677605,0.04375052878875511,9.82289072362704,1.0577006490074534,0.2213888210111699,0.018854343498452008,0.0,0.0,0.0
0.188,-0.01546987973092236,0.00015191328553409593,9.8219698699693,0.5313667041058715,-0.5706683548482295,-0.01785530340191679,0.0,0.0,0.0
0.19,0.01825893591052491,0.004886490112781106,9.766888852938502,-0.44625024650887857,0.33971507145652236,0.2903481606998386,0.0,0.0,0.0
0.192,0.07830434889686001,-0.04813584693406243,9.744680689632094,0.5168442904362937,-1.3707381592404246,0.7427815354920813,0.0,0.0,0.0
0.194,0.04800365388615989,0.031572766889708975,9.853722457367404,0.005898373274853574,0.5693639160737223,0.6071083826844931,0.0,0.0,0.0
0.196,-0.04786936536681144,0.01744778880346112,9.800696256563036,-0.01799033313228001,0.7963725935717978,0.24114809208631655,0.0,0.0,0.0
0.198,-0.005436396065340714,0.022569371831545386,9.752048980566148,-0.35725412985908445,0.20972596042927724,0.27346696250721175,0.0,0.0,0.0
0.2,-0.019453906999891316,-0.015396407241767662,9.795796398798291,0.054860469401416964,-0.03107092960806044,-0.40489958251875546,0.0,0.0,0.0
0.202,-0.03747107086226607,0.08729697783113154,9.811877647898143,-0.1261300486243803,0.6696276436094742,0.49601704600208096,0.0,0.0,0.0
0.204,0.02760202503339118,-0.0071891822192361515,9.827293531502953,-0.3427701597772205,0.21068526863914824,-0.07528811586291619,0.0,0.0,0.0
0.206,-0.03712316602302364,-0.05593755702207155,9.811061080769477,-0.16015788276659848,0.258531134611422,1.1883537765095584,0.0,0.0,0.0
0.208,-0.017917620562246037,-0.005424281820640507,9.79913011522437,-0.1353678632805265,0.08582232289814608,0.1459406953815166,0.0,0.0,0.0
0.21,0.017749798496457674,0.00018781413234023034,9.778230563740706,-0.19365781289441375,0.26472674938330115,0.010023104477620542,0.0,0.0,0.0
0.212,0.004864892446144037,0.01792348253075258,9.83122402794831,0.5405281587316978,0.5149800892409232,0.18873572270208472,0.0,0.0,0.0
0.214,0.041171019190724766,0.010660180074941733,9.75307965446427,-0.51730795001946,0.062223120386702746,0.7720027629337979,0.0,0.0,0.0
0.216,0.00553600967881078,0.015054141728131435,9.800118975768347,-0.06931701434324213,-0.5592019982702261,-0.010758996125297456,0.0,0.0,0.0
0.218,0.033595868958927806,-0.04965142019473387,9.787073210734155,-0.25027222897123463,0.17624419688513,0.2684094989732642,0.0,0.0,0.0
0.22,0.026353252527040023,-0.03293474906438782,9.806747668405597,-0.561913812731325,0.19559217898277972,-0.44888124980468663,0.0,0.0,0.0
0.222,0.007740483195846762,0.008153706407783536,9.786742630575306,0.1020775702189507,0.33205283490009974,0.3166126131775786,0.0,0.0,0.0
0.224,0.02890748970395156,0.025042602188590352,9.786866261205933,0.668673088708435,0.8582798321072035,-0.2632225380561852,0.0,0.0,0.0
0.226,0.04911065536004473,0.017401576534297726,9.781205350828046,0.21751879379988237,0.0176553624122756,0.18696256418808344,0.0,0.0,0.0
0.228,-0.030143863606498313,0.00392499705845888,9.798340376219096,-0.9408844536730914,0.025257648582737595,-0.08879631587887643,0.0,0.0,0.0
0.23,0.025688293651692142,-0.005291370849433235,9.835982822187237,-0.4824284793022016,1.0304335179084658,-0.02756631089602451,0.0,0.0,0.0
0.232,0.029365593457948886,-0.012640028038482656,9.803749001839734,0.05869640308333202,-0.21532932152280274,-0.42818258519614244,0.0,0.0,0.0
0.234,0.007950070244846919,0.011083025350189374,9.879562307440873,0.4410529072990307,-0.4099595288685905,-0.6992775854168721,0.0,0.0,0.0
0.236,-0.004126286269347236,0.07872837150729874,9.806930505342171,0.3386963734537095,-0.11737177776885326,0.4345531063002932,0.0,0.0,0.0
0.238,-0.041438206441943064,-0.047711548189382676,9.85454745586779,0.9386831806694436,0.484878160638088,0.13251298015784285,0.0,0.0,0.0
0.24,-0.01936710297812896,0.038395721968401214,9.803960968191603,-0.13620786004759794,-0.6074754948341008,-0.4231396835927169,0.0,0.0,0.0
0.242,0.002345921449660302,-0.05816554901844134,9.810124810818003,0.286131919572761,-0.43742137369923323,-0.09471312625026321,0.0,0.0,0.0
0.244,0.020154350022105784,0.0019987448696674823,9.783495799176745,-0.1047170666738049,0.11442159874116394,0.8650880273839242,0.0,0.0,0.0
0.246,-0.0022865056447145815,-0.03241634583131028,9.807225138741902,0.35703495133029034,-0.23674374199459408,-0.2017532760374773,0.0,0.0,0.0
0.248,-0.00758118468519622,-0.03098281347173007,9.787883177744229,0.2377660777828362,0.18037934768836966,-0.47871731141267243,0.0,0.0,0.0
0.25,0.05110098150427134,-0.015623477456101856,9.83689077767012,0.26552736908227026,0.16341455133139257,-0.1948051068948211,0.0,0.0,0.0
0.252,-0.006196254228734067,0.009683202071605692,9.794511509681108,-0.7473709516873303,-0.2552697054645382,-0.2427799100447166,0.0,0.0,0.0
0.254,0.0013042262183167808,0.04409941434383198,9.776714500224628,-0.3705132810652007,0.09109777846647212,-0.06594882498457279,0.0,0.0,0.0
0.256,-0.0016981891746543792,0.006963124981570994,9.857207567475335,-0.3712307616475653,0.22433691346245377,-0.07845667912129425,0.0,0.0,0.0
0.258,0.010777944688381577,-0.012449222959963842,9.865090700565673,0.029675040943760413,-0.4215999845043925,0.04142485811907304,0.0,0.0,0.0
0.26,-0.001887853564012457,0.011746995771824587,9.819346629985283,0.4302225662816422,-0.7073521448559953,-0.5122945715543648,0.0,0.0,0.0
0.262,-0.058789350219320156,-0.03728621678572243,9.768077939185726,1.5978172633581822,0.00650447449158905,0.12720758218335038,0.0,0.0,0.0
0.264,-0.044040797036498845,0.02987925629136738,9.791375533502562,0.11029211539787798,-0.19631798624604677,-0.21115140272798277,0.0,0.0,0.0
0.266,-0.05339667240294592,-0.0173302298246403,9.742573693153746,0.29298368689934173,-0.4314100263526627,-0.11806460976126598,0.0,0.0,0.0
0.268,-0.008259802835828167,-0.015366699923120945,9.783062549548768,0.24872540814228133,-0.2091720921803072,-0.07478679434249107,0.0,0.0,0.0
0.27,0.05915072329536195,0.02112731509694859,9.797413835307516,-0.8293402243624619,0.16146410566719016,-0.3314198684294889,0.0,0.0,0.0
0.272,0.018636652405855377,-0.0038250093702840563,9.825086915924661,0.5949679945320435,0.6213773234351401,0.17460996845476323,0.0,0.0,0.0
0.274,-0.032753802599890934,0.0006317455079741775,9.801164937669782,0.787866874533681,-0.5487950524921942,-0.3230411348949378,0.0,0.0,0.0
0.276,0.020815669965429256,-0.008834656610868779,9.776024887757332,-0.22767517213326754,0.5779139489529017,-0.6131238864980713,0.0,0.0,0.0
0.278,0.0033167677265279858,-0.034177255770095394,9.822465390005256,0.041172428145237354,0.4177316167297581,0.25953524650989596,0.0,0.0,0.0
0.28,-0.03240513801838721,-0.05007786685543619,9.796457275321018,-0.18238432519904846,-0.38232544329943385,0.593032006729726,0.0,0.0,0.0
0.282,0.0035728891241097044,0.014463009238817642,9.787616312199551,-0.39196930001865027,0.48854053211699683,-0.5435956278615199,0.0,0.0,0.0
0.284,0.021766780644035307,-0.00804928020318597,9.886605787444402,-0.3755844054388956,0.5886679995082741,-0.41047063061241956,0.0,0.0,0.0
0.286,0.015363914934553928,-0.010478874673109621,9.792596350362619,-0.23072980920777397,-0.3571678735133713,-0.00786110509322278,0.0,0.0,0.0
0.288,0.017361556293536022,-0.00505999582054609,9.82253078152766,-0.1708380087698574,-0.7173908202575878,-0.1617728138477283,0.0,0.0,0.0
0.29,0.030677570650582596,-0.0036873991788270834,9.775983863384106,-0.5842014812244484,-0.18750793881302355,0.06864934645663448,0.0,0.0,0.0
0.292,-0.001165921275714577,0.008382926545153883,9.81364537639053,-0.25846507887077863,0.2808223599042499,-0.24304992258909075,0.0,0.0,0.0
0.294,0.04546091220766008,-0.028188284724568,9.82573568918873,0.6598966960358434,-0.4519091809324981,0.02225201684538998,0.0,0.0,0.0
0.296,-0.001503064405101506,-0.0008388693437704731,9.779292984216134,-0.19251067270239366,0.6516078929485467,-0.41368041343668244,0.0,0.0,0.0
0.298,-0.012139434524880277,0.0325353227388805,9.828312435219257,-0.6318169892946621,0.23392167287543703,-0.24818631834395913,0.0,0.0,0.0
0.3,0.0036950775882474305,0.04870701934985316,9.835513288666686,0.6680352242618264,0.16631945856845942,-0.16784894574390574,0.0,0.0,0.0
0.302,0.010900813342421338,-0.07296806171982317,9.772669068845385,-0.05188894938262682,0.5451805489493186,0.2071154698752538,0.0,0.0,0.0
0.304,-0.0004600125147484579,0.032552340546229415,9.828791901381999,0.026560444991172556,0.6554546951393718,-0.5542939717687653,0.0,0.0,0.0
0.306,-0.0035795884565129137,0.015645121210066077,9.764283743646537,0.5641683364610056,0.5521453780846753,0.07727508431821832,0.0,0.0,0.0
0.308,0.03474110278562951,0.01943064631364925,9.81399756647811,-0.054464789124915626,0.4628304158363742,-0.3017323811908353,0.0,0.0,0.0
0.31,-0.028501837044433563,-0.006238156604893624,9.752573785992217,0.5077949747949497,-0.4165989337667021,-0.8630206624137525,0.0,0.0,0.0
0.312,-0.027288305617152654,-0.07432610100470245,9.8380860043795,-0.11104231951561797,0.12839615839553098,0.06611649403546321,0.0,0.0,0.0
0.314,-0.016834997824227056,0.00454851144453781,9.767535352682708,1.0965171142857657,0.30887072163385737,-0.07401117967744374,0.0,0.0,0.0
0.316,0.004084757588789467,0.0558937579993158,9.759944953489992,-0.31579112472465537,0.024470745899532086,0.5214431313605974,0.0,0.0,0.0
0.318,-0.028339847207463218,0.014953150552600995,9.810582153444098,0.5541967125456605,-0.004469887749453451,0.21027724633294853,0.0,0.0,0.0
0.32,-0.0144637053847007,0.01989128771121599,9.7934911034741,0.6590191245618261,-0.09017150488612567,0.7484570116207406,0.0,0.0,0.0
0.322,-0.037931182533428365,0.036456974995628985,9.79487540175508,-0.44298445859091495,0.2875229462747139,-0.42466812042713475,0.0,0.0,0.0
0.324,0.05630328074053733,0.01200081951049304,9.802033973743413,0.43815090391392075,-0.15705966299419732,0.11104917778269283,0.0,0.0,0.0
0.326,-0.017767908086872147,0.037776012065522,9.808726359178914,-0.4977514310404591,0.27498013247383946,0.33167752571472486,0.0,0.0,0.0
0.328,-0.010840335305798589,-0.0021724534764238426,9.816208496303398,-0.7062876089506336,0.5017888441595694,-0.18774153841173896,0.0,0.0,0.0
0.33,0.045606914788418836,-0.016089059694637538,9.873188693742446,0.3274056168948289,-0.19515666447023838,0.281498257160601,0.0,0.0,0.0
0.332,0.030251117323435824,0.004642219357748434,9.838940840545481,-0.22011775150585247,0.16113486278229283,0.23997895269386196,0.0,0.0,0.0
0.334,-0.04596360335719551,-0.013178061493951822,9.861448629713072,0.02994881168975427,0.2973514507279791,0.15958787165356741,0.0,0.0,0.0
0.336,-0.0383229114025122,0.02105370250006874,9.789185980755708,0.4642555942441371,0.42750114315805093,-0.00729278154839752,0.0,0.0,0.0
0.338,0.046157708021075494,-0.01691335795879184,9.773067932627635,0.40029349237445333,-0.760422874495496,0.7928709982568565,0.0,0.0,0.0
0.34,0.04551485836156125,0.019329407341819822,9.777379697407582,0.2836128646399412,0.6746209388129423,0.2774782448766748,0.0,0.0,0.0
0.342,-0.004473782851597802,0.04077842593181061,9.796355653854578,0.18522325922547261,0.4050617623616037,0.6865686502732123,0.0,0.0,0.0
0.344,0.03509702548725153,0.004678747753589747,9.79849235173097,0.07416616257474772,0.44477775405677766,-0.3757002428941765,0.0,0.0,0.0
0.346,-0.020708409103491587,-0.022846412243080285,9.849878903468229,0.3033244506995726,-0.25154509107577494,0.4749794445297895,0.0,0.0,0.0
0.348,0.045325352025562676,-0.01587158394974144,9.807050586024893,-0.09101406067463137,0.18209072565207143,0.06838140945612355,0.0,0.0,0.0
0.35,0.06832661759467816,-0.008162003775635638,9.782527174871205,0.4917062475817997,-0.418449787930201,-0.01737004514521345,0.0,0.0,0.0
0.352,0.026050653448095918,-0.07356677308006104,9.849579761852544,-0.0990972412185565,0.22596029885379318,0.31839531658145953,0.0,0.0,0.0
0.354,0.03300967874192583,0.029495172384405476,9.78817219271877,-0.2835442847473438,-0.08696980550364365,-0.8033177726468868,0.0,0.0,0.0
0.356,-0.07878964705699586,0.03369231676154235,9.816158824887502,0.041771521983727855,-0.4230247956402409,0.04633541719578478,0.0,0.0,0.0
0.358,0.01570405957706202,0.003192777480265757,9.876118382493784,-0.10475601193509612,0.1492019920002876,0.4054518105057012,0.0,0.0,0.0
0.36,0.04452271125283016,-0.029541049782881256,9.749001032444855,-0.0024051176538827054,0.5627973841395822,0.2501969970227733,0.0,0.0,0.0
0.362,0.016592729063136278,-0.022528414157332186,9.842461722094662,0.19725809501809485,-1.0057988429045528,0.1163196417292226,0.0,0.0,0.0
0.364,0.012750817668913441,-0.03383320298307482,9.800093298651111,1.1874131162769603,-0.21463301023629192,0.5205654383131831,0.0,0.0,0.0
0.366,-0.02888673106360703,-0.035223124559555695,9.782438136675395,-0.7976095715980078,0.185442157228771,-0.014782473978843993,0.0,0.0,0.0
0.368,-0.01838452031773721,0.06458799887171336,9.846342934560369,0.19151598816734738,-0.12758138513936576,0.9633235552638102,0.0,0.0,0.0
0.37,-0.004098137475372011,-0.029451975652056768,9.806176511138988,0.46423528585489227,0.01845743977518085,-0.5578424129743044,0.0,0.0,0.0
0.372,-0.008747808377424074,-0.042503567705539126,9.798893308946479,-0.23239998309089255,-0.0228566475595343,1.0831365186055764,0.0,0.0,0.0
0.374,0.028818111522748532,-0.013995980270624611,9.845005495107992,-0.6734693364653844,-1.7257063451614127,-0.28761544155327495,0.0,0.0,0.0
0.376,0.027016827213274263,0.016877184940892867,9.80842602099658,0.8097468013411713,0.051946409398811615,-0.30326276863237855,0.0,0.0,0.0
0.378,-0.017272847926902916,-0.01114508646140487,9.788891917597647,0.18360822724141465,0.7558805238985526,-0.31771873938086714,0.0,0.0,0.0
0.38,0.013055674947440452,-0.021895072382579973,9.819656093238102,0.14022033594343675,-0.019440864106734734,0.5619234528079922,0.0,0.0,0.0
0.382,-0.018152697743981948,-0.024234630658695105,9.779188862771383,0.054972720255392585,-0.8790025881233535,-0.2618686527644207,0.0,0.0,0.0
0.384,0.008833354537038677,0.006829481277667791,9.7862521656815,-0.2451524791218158,0.24976336476395047,0.5917755318078333,0.0,0.0,0.0
0.386,-0.007704643421877118,-0.011356646475027118,9.814657297880917,-0.38429269120712506,0.557556844361522,0.047741482556726375,0.0,0.0,0.0
0.388,0.034198062590926497,-0.0394644450448643,9.819053300636021,-0.8343922209498669,0.02612388505962691,-0.2736476902563064,0.0,0.0,0.0
0.39,-0.008691310709497458,0.03367847787126675,9.83853879962072,-0.07753425278607287,0.26582584533467013,-0.5850047336573058,0.0,0.0,0.0
0.392,-0.03814442704392526,0.027962803564126292,9.813820970886885,0.6865658033722777,0.47385313171207294,-0.1984572210988503,0.0,0.0,0.0
0.394,-0.03854868973543342,0.006537186758798634,9.859046120461068,-0.21947327676855177,0.34841012024210727,-0.138502115486751,0.0,0.0,0.0
0.396,-0.027835758960078644,-0.037774392877644176,9.78428527162959,-0.2501388302572317,0.08821776035260266,-0.03360247938979675,0.0,0.0,0.0
0.398,0.018063444546041203,-0.0722599847393969,9.76736599842034,-1.294267010163414,-0.3519328411149894,-0.7258222416840892,0.0,0.0,0.0
0.4,-0.0635937627241308,-0.053253116832734364,9.764720834402068,0.6936251685836754,-0.46001025465662737,-0.7138080732072065,0.0,0.0,0.0
0.402,-0.011666694335466691,0.06184309655185596,9.774948444584036,0.345592045545775,0.608842006335148,0.10856108440506468,0.0,0.0,0.0
0.404,0.020596681050886217,0.041513981575510145,9.824609185889463,0.1012831261615913,0.1437550546372585,0.39609134003290464,0.0,0.0,0.0
0.406,-0.028376843413284083,-0.024128616133864324,9.79730401750438,-0.32140884154436916,0.6138308278382497,-1.2025142349922506,0.0,0.0,0.0
0.408,-0.01594123831066946,0.003944713748283709,9.832318746549848,0.47485132720174417,-0.8471321790381017,-0.149955979797623,0.0,0.0,0.0
0.41,-0.02464193837814214,0.011186781215278729,9.856181150862785,0.1179140432702577,-0.4317703589447031,-0.1437144712454628,0.0,0.0,0.0
0.412,0.02932299826183115,-0.015442185249763462,9.848839224033574,-0.08763653026375766,0.10707233335299428,0.33342753811677756,0.0,0.0,0.0
0.414,-0.019609844529279476,0.05486442874185318,9.728382443773185,-0.4962084104983598,-0.27313590665697457,0.13706385057123568,0.0,0.0,0.0
0.416,0.011667355598733163,0.024162293322148466,9.798465832442435,1.4171686198175182,-0.8265997375657299,0.6801724050595729,0.0,0.0,0.0
0.418,-0.009663294669056226,0.014192588474458354,9.825718831392784,0.49066226154090153,-0.27805583657370436,-0.5620894987916955,0.0,0.0,0.0
0.42,0.009186436975841475,-0.011790194889884456,9.810772743850379,0.5309980046400734,0.5663179820560612,-0.2255447709246501,0.0,0.0,0.0
0.422,-0.01193299445124634,-0.04089250193504854,9.816932362483447,-0.45446850318968374,-0.1283769617871906,-0.8216135705896374,0.0,0.0,0.0
0.424,0.023351057785597925,0.0015459204917851852,9.754651280642411,-0.33112424137266105,0.43717378489638753,-0.1464841502104575,0.0,0.0,0.0
0.426,0.029835832910076594,-0.009836479484269082,9.82611711744502,0.8350629230033021,0.3299141560395011,-0.1920027462582747,0.0,0.0,0.0
0.428,-0.0712271670402106,0.01881618352577941,9.846362569508704,0.5111090302399512,-0.6905843851646778,-0.3561665564716488,0.0,0.0,0.0
0.43,0.04998996765739732,-0.0029565337063595792,9.737099002253471,-0.36752219478791986,0.2369509494686456,0.19698497737425383,0.0,0.0,0.0
0.432,0.024795419576483645,0.024068966928830142,9.79890384743638,0.026872258823051484,0.16322064900738317,0.12397854910491292,0.0,0.0,0.0
0.434,0.03303137488412368,-0.0013124198804278604,9.82620512279205,-0.41066698525491807,0.49495401233753317,-0.5876786730421719,0.0,0.0,0.0
0.436,-0.002945444547713784,-0.047638799834277865,9.785829984653176,-0.8834089613591491,-0.6417779919237321,-0.4131149464393228,0.0,0.0,0.0
0.438,-0.006704272251972907,-0.0002172290648481026,9.84484518474269,0.4138557150528807,0.7144225594110895,-0.14228487406860316,0.0,0.0,0.0
0.44,-0.018698298533968302,-0.0327927609913658,9.801296518556402,-0.5173629943340787,0.2249031220737239,-0.7687684730647117,0.0,0.0,0.0
0.442,0.020065176529274652,-0.0377688008838085,9.839699065897484,0.47123828630643577,0.9373760039057085,0.6670091356315165,0.0,0.0,0.0
0.444,0.03510702244020628,-0.01922177485636875,9.786873956052299,0.6658238827130346,-0.08696699317814725,0.11125802301806685,0.0,0.0,0.0
0.446,0.037265087550167955,-0.0010979287627048448,9.811195038443373,0.552287844622923,0.39160823543633894,-0.6397299031165513,0.0,0.0,0.0
0.448,-0.00705131437504395,-0.056103593220506655,9.79669887993654,0.47063575503875593,0.06137373750675593,0.15918415842242153,0.0,0.0,0.0
0.45,-0.005077407169224186,-0.06410909951256183,9.827186307729738,0.41261867116615547,1.139146855129032,-0.46860778672209275,0.0,0.0,0.0
0.452,0.0075064573111303535,0.014289674619389754,9.86239880929208,-0.10093830880461362,0.3938361958298547,-0.3598998401519234,0.0,0.0,0.0
0.454,0.016120347233357236,-0.011393466982677765,9.844053429162425,0.17946862820824672,0.5785897531269311,-0.3839037770568122,0.0,0.0,0.0
0.456,-0.0147710877988729,0.0010688896546471826,9.801676394004932,0.5554575840197004,0.2947876286406723,-1.1448380327612089,0.0,0.0,0.0
0.458,0.016384167872778632,0.07614070560762398,9.861318402016005,0.003690331138025064,-0.7746907164134323,-0.060598759598516426,0.0,0.0,0.0
0.46,-0.0061113054311505875,-0.053097647056705596,9.801213812408436,-0.9621412576188427,0.1075237698852314,-1.0176119354224593,0.0,0.0,0.0
0.462,-0.025212723764826493,0.041921953489434734,9.803662456506212,-0.06690847800494268,-0.24037918254944246,-0.32953973151606375,0.0,0.0,0.0
0.464,-0.055147119058879604,0.015647505021005818,9.809923871423372,0.020917847495176056,-0.2774234889059484,-0.6788622919751685,0.0,0.0,0.0
0.466,-0.017130712682618003,-0.007583418151457601,9.80625508708148,0.07578963987183014,-0.2564601995499196,-0.5007141063594134,0.0,0.0,0.0
0.468,0.027167537979205066,-0.009900669171121892,9.770115093904524,0.18311892351405987,-0.08020344928657741,-0.020306317830899655,0.0,0.0,0.0
0.47,0.07566739893491133,-0.00379272460531346,9.833967335104095,-0.34913026919163775,-0.1645462554364074,-0.06432830347153923,0.0,0.0,0.0
0.472,0.04033083774776521,0.05279410079846179,9.778359239845056,0.47540121654171685,0.4077141164843022,-0.361527606508036,0.0,0.0,0.0
0.474,9.866289963434132e-05,-0.01826439518209466,9.907046492440175,0.12328599657748995,-0.5069504960304544,-0.0931618568399769,0.0,0.0,0.0
0.476,0.006838781630893417,-0.033869432903842075,9.799748672987757,0.06136853413173913,0.5092180270753167,0.01012570671124349,0.0,0.0,0.0
0.478,0.02947913555419556,-0.012184142423380505,9.80308071871962,-0.04184976806626872,0.6718911240400401,0.2721690699423359,0.0,0.0,0.0
0.48,0.010826000695729518,0.022786667620767333,9.794129468908062,-0.7790513146702069,0.562031663028731,-0.9225184111174215,0.0,0.0,0.0
0.482,0.03526037978569281,0.0036469282200481323,9.795427602924331,-1.1260466768160222,-0.5856029074053297,-0.060142948155648066,0.0,0.0,0.0
0.484,0.02016882141058933,0.02929787725289163,9.819624658973101,-0.41195050648437553,-1.0590127390020156,0.7346610174332809,0.0,0.0,0.0
0.486,0.007568736501830322,-0.032264030976827215,9.772276065110168,0.02356543510578874,-0.5017012459119945,-0.025939958981668093,0.0,0.0,0.0
0.488,0.037819977299221465,0.008237598679950175,9.795252727374985,0.6329054674840764,0.2925957595655648,0.18819878712432195,0.0,0.0,0.0
0.49,-0.014708803147879588,-0.03665821314904133,9.779024877888437,0.08824073114428045,-0.12776372049603052,1.0786495313655948,0.0,0.0,0.0
0.492,0.009075622544066738,-0.02221865801408562,9.820720226303877,0.9914725903629319,0.4687988240415605,0.041156199112992085,0.0,0.0,0.0
0.494,-0.032991032348170884,0.05314502140375134,9.778400388627373,-0.11643545381459802,-0.33377981378723415,0.7399120509821181,0.0,0.0,0.0
0.496,0.005941360640624943,-0.07636067013499802,9.8583249197612,-0.7083438297523111,0.7631288503424665,-0.4247241211848593,0.0,0.0,0.0
0.498,-0.047965286042091465,-0.014158978801534501,9.789080646461231,0.8778132654981172,-0.16660283822404168,0.033118555533411885,0.0,0.0,0.0
0.5,0.01537603672015298,-0.010568897125089906,9.82527457600545,0.15656261285590947,0.15774885153216325,0.17477770895008368,0.0,0.0,0.0
0.502,0.011858156736817099,-0.010636064834019177,9.809409326055032,0.1532048996008006,0.13000037924679303,0.10115146486186433,0.0,0.0,0.0
0.504,0.025851332885540496,0.0236813103995758,9.7652615403709,0.10234024866831863,0.8182712425269562,-0.4380106185838699,0.0,0.0,0.0
0.506,-0.017201621882596,-0.017936256490576973,9.776567375717981,0.31743446745854703,-0.3088868927227814,0.13122020689494152,0.0,0.0,0.0
0.508,-0.03086909107308175,-0.006080792800382871,9.847200862967446,-0.5985097332928078,0.2338227998021509,-0.6389612963358559,0.0,0.0,0.0
0.51,0.009101989649756096,-0.02001751269297968,9.854295781112455,-0.11776882716801954,0.9187360146303888,-0.28179264969098866,0.0,0.0,0.0
0.512,0.07717439365914784,0.003765592480221796,9.781939157245533,-0.2516928769298089,0.15712148054446548,0.8676647966027461,0.0,0.0,0.0
0.514,0.05151754859170781,0.03374679082682889,9.811328482688408,0.014175421023019519,-0.5962748299368139,-0.23208507046035867,0.0,0.0,0.0
0.516,0.022304092640466747,0.025218448243551097,9.826287767238457,-0.2522933840272987,-0.5723594566228323,0.3013366636007963,0.0,0.0,0.0
0.518,-0.025489598965125513,-0.07502578116749359,9.780029166954339,-0.6106269751214012,-0.3003130727839666,-0.1307982766497606,0.0,0.0,0.0
0.52,0.006099400560778364,0.03696664997566397,9.7991034534032,0.408701263370586,-0.21819608180275984,0.15545727059343784,0.0,0.0,0.0
0.522,0.009817315112422417,-0.007560645280569334,9.806092894695164,0.17728625046686855,0.11262114533214972,-0.057775532993506865,0.0,0.0,0.0
0.524,-0.017251464930776263,0.0060828615700879015,9.798405574068688,0.7949322252688372,-0.517010151099308,-0.788396896684349,0.0,0.0,0.0
0.526,-0.0019298522505621077,0.016669088865034848,9.822888406954268,-0.5065380946555552,0.46677241684477294,0.8321419071331396,0.0,0.0,0.0
0.528,-0.013549524468468141,0.015699678778516926,9.80012865956828,0.3714412534631518,-0.4088650125240343,0.6850312875739755,0.0,0.0,0.0
0.53,-0.01572394322208081,0.0019622480710657676,9.854641427618253,0.3614680646432077,0.40239281311107733,-0.22492749116767252,0.0,0.0,0.0
0.532,-0.002827386024916944,0.007750843569055494,9.802124857670888,0.336588381403991,0.46418479379608185,0.8394015208851957,0.0,0.0,0.0
0.534,-0.031182048412024363,0.03117022202417475,9.838349535659164,-0.008891978562691227,-0.2987303765325386,-0.27720281415645187,0.0,0.0,0.0
0.536,-0.014274162619899571,0.01796403043012931,9.812857798887848,0.14080555807862055,-0.27046258027614967,0.7452012164514523,0.0,0.0,0.0
0.538,0.07983599298464722,-0.06262379615600933,9.808091617005262,-0.1410758136665878,0.5087087828930507,-0.14162001181795505,0.0,0.0,0.0
0.54,-0.01680229517072887,-0.017268331395027637,9.802622067975616,0.2611637381218535,0.07196626159127684,-0.10412725595477232,0.0,0.0,0.0
0.542,-0.05612924531571927,0.056297890168088095,9.78922818830697,-0.5267205164083943,-1.0221383375880866,-1.0758056276399568,0.0,0.0,0.0
0.544,0.01738726719806347,0.01021056304777218,9.785588263659129,0.5713533801054544,0.49114995242757725,-1.0333570198751822,0.0,0.0,0.0
0.546,-0.010142872210188008,-0.04654475735702094,9.841503279997324,0.13718751630307585,0.7465813359320036,-0.48847105374353395,0.0,0.0,0.0
0.548,0.01498589412414259,-0.03855109762018193,9.872503438173137,0.014177645784742772,0.8108089504198317,0.5427093290190411,0.0,0.0,0.0
0.55,-0.06768028269967069,-0.017800123148006677,9.7980880932011,-0.20893344792962737,-0.2901845361760233,0.24862186918018986,0.0,0.0,0.0
0.552,0.0236980837409012,0.016884543531721048,9.829441860100786,-0.04952057157539256,0.08618964538900485,0.608416215338885,0.0,0.0,0.0
0.554,-0.01036498996942291,-0.01571684080395879,9.80876091519568,-0.04701883375511166,0.061749941753915065,0.4697772334549653,0.0,0.0,0.0
0.556,0.08128593219579791,0.02825950470089783,9.843067407282115,-0.7789588157362316,-0.19473524566545528,-0.3794256592320517,0.0,0.0,0.0
0.558,-0.010211775030936626,-0.0281384842289029,9.791875178590708,0.13597026786685038,-0.20862338631699498,0.5793298031649958,0.0,0.0,0.0
0.56,0.01273282147873638,-0.008082927159213708,9.825917301893407,-0.4761457425086549,0.13360087636005052,0.12586328951811426,0.0,0.0,0.0
0.562,0.029807618325610404,0.0012240947192551533,9.743471346286068,0.6071733277543353,-0.21309019753060549,-0.051812338420366436,0.0,0.0,0.0
0.5640000000000001,-0.08854600429841221,-0.005715670847956319,9.83756080585327,0.2450830140978959,-0.6412526148879238,-0.7649055880720586,0.0,0.0,0.0
0.5660000000000001,-0.05900986057797231,0.08181696302769703,9.811519298734266,0.15242037749933646,0.03035744366824901,-0.32789353798878207,0.0,0.0,0.0
0.5680000000000001,-0.014188845835587624,0.0109428754654145,9.802733376033917,-0.6200447055367689,0.20451010367366387,0.98629784483886,0.0,0.0,0.0
0.5700000000000001,0.014500925847629532,-0.0007216537570489369,9.810426558800495,-0.3371138940862729,0.5420066369643757,-0.046381071193448614,0.0,0.0,0.0
0.5720000000000001,-0.0029301755157142826,0.004278832898814444,9.783423748006978,-0.44118899639600484,-0.6120685930228775,-0.2349688429701444,0.0,0.0,0.0
0.5740000000000001,-0.02347900823981836,0.012026519529668675,9.766346606895745,0.6084359815001764,1.1451755318470365,-0.39533613886307417,0.0,0.0,0.0
0.5760000000000001,0.007329839398840143,0.026152443780746572,9.779027151738486,0.7618045428191529,0.23947203713434845,0.46694835505533433,0.0,0.0,0.0
0.578,-0.015096652755391557,0.0026195902957206942,9.81516266156935,0.07534059527830708,-0.5536588625164519,-1.3282249112293905,0.0,0.0,0.0
0.58,0.04383779615593036,0.0030765816076814526,9.816408112499289,-0.4928896277012221,0.09771512403065555,0.2790262878555105,0.0,0.0,0.0
0.582,0.0014260565963143449,0.0013098480040949739,9.825970925192104,0.34055238550998146,-0.2756143563105682,0.09733450675681274,0.0,0.0,0.0
0.584,-0.0450392464986245,-0.013786159311695984,9.827771108121619,0.046169012403264875,0.11469843048214343,0.39450536627676885,0.0,0.0,0.0
0.586,0.011747106843620729,-0.03196847735673667,9.804007784128155,0.05467807598747453,-0.7753345469349096,-0.12056205416511274,0.0,0.0,0.0
0.588,-0.023095908348165387,-0.039846386048774975,9.81987758654186,-0.30458676260182643,0.6422648673972721,-0.6506726864830499,0.0,0.0,0.0
0.59,0.05318189853618866,0.025766149600210776,9.80814618212519,-0.420761863876243,-0.8258517021690113,-0.4389070143055601,0.0,0.0,0.0
0.592,0.0323427531190158,-0.03145279326932938,9.81828281350531,0.22561153927604347,-0.700169641228108,-0.40201223854345947,0.0,0.0,0.0
0.594,0.02717411489359129,-0.017160752088669826,9.833429605246407,0.3056464836873686,0.10968904479040306,-0.32451585427652346,0.0,0.0,0.0
0.596,-0.014214475071421604,0.00203737059216098,9.833514193089117,0.21720052018656968,-0.833920974492488,-0.0012391852025942936,0.0,0.0,0.0
0.598,-0.03387422315081626,-0.010741555780595295,9.81182674469396,-0.07869988231036033,0.06642273424750243,0.9435586022353826,0.0,0.0,0.0
0.6,-0.08746343250821097,-0.0028847655424933077,9.83645143108735,0.38858803553399823,0.5404113329155656,-0.41196490053374796,0.0,0.0,0.0
0.602,0.025730960255140205,0.022207408461119283,9.801009532724827,-0.22651804810262655,0.8006199017546723,0.4141274286421676,0.0,0.0,0.0
0.604,-0.04085489796524643,0.029013892586455023,9.817867718202498,0.6621056185992636,0.5527664569913802,-0.5922595721315929,0.0,0.0,0.0
0.606,0.036476974988643274,-0.004880545227803916,9.82182336493197,0.06270234861614207,0.16322640802786517,0.6702591797214305,0.0,0.0,0.0
0.608,-0.02073057662154242,-0.027699408025491163,9.762325475872386,-0.5079376944912666,-0.5883125019653602,-0.7241236810264566,0.0,0.0,0.0
0.61,0.029416918365697178,0.0580263887093533,9.770265279575817,0.29942564146355877,-0.5154218914048531,-1.2105146588369942,0.0,0.0,0.0
0.612,0.06963787522301035,-0.03321282798885534,9.837766407866068,0.23785316499603523,0.4426413223422516,0.13130819752294276,0.0,0.0,0.0
0.614,0.0029861393911701398,-0.06438401982946848,9.793971236438205,0.26635013959092224,-0.2164914755206438,-0.7414174167078484,0.0,0.0,0.0
0.616,-0.0021429987984477273,0.027869194845598563,9.830043033141923,-0.5183979276129066,-0.7030753087126088,-0.43775717706346473,0.0,0.0,0.0
0.618,0.007778791767420685,0.06500237230094548,9.798125455020939,-0.1969813778813515,-0.10473640808213677,0.3138981672493674,0.0,0.0,0.0
0.62,0.004081637751182731,0.018613289037352897,9.815531575726007,0.22078539088302157,-0.27496812222425776,0.5921211114596474,0.0,0.0,0.0
0.622,-0.03573627110017538,0.017106487994876258,9.813214062165178,0.1954018576579259,-0.3188572608049118,-0.6747824478201125,0.0,0.0,0.0
0.624,0.0007913160111943052,0.03163348437825132,9.761243872292969,0.11413150544149554,-0.20802296099318393,-0.7880523152757933,0.0,0.0,0.0
0.626,-0.05213914346971964,-0.018974101993701892,9.838613708460848,0.38421747077240137,-0.6990832204281647,0.06054583307769358,0.0,0.0,0.0
0.628,-0.03624222456263535,0.017502578714763174,9.846127446294215,-0.20627698907385222,-0.6126404478608827,0.9114111638384884,0.0,0.0,0.0
0.63,0.04446713866561231,-0.00900444258538595,9.790372687986263,0.729917612965986,-0.8121919617203306,0.5543163332094938,0.0,0.0,0.0
0.632,0.006628837619081772,-0.004223392019675778,9.838370316538372,-0.18820700729629858,0.4008389276993971,0.07052971394131925,0.0,0.0,0.0
0.634,-0.03136888140942798,0.03068668467249635,9.772004646681326,0.023935312857844213,-0.40359138127108485,-0.25910037325734925,0.0,0.0,0.0
0.636,0.05779552961639117,0.024837299799184098,9.858548683725845,0.5025820357259431,-0.3930067081716819,0.44380224909320265,0.0,0.0,0.0
0.638,-0.01128817933602918,0.007762183555434231,9.83702889197031,-0.5578151536018559,0.19753760155167235,-0.3647176426831047,0.0,0.0,0.0
0.64,0.03986599986604127,-0.004940100786444919,9.844690589210991,0.25488160431848084,0.10461448084832373,0.14147734635093015,0.0,0.0,0.0
0.642,-0.06285523358733941,0.02644059185861121,9.826545918763545,0.05494907595369203,-0.6245727263951443,0.6382693137465624,0.0,0.0,0.0
0.644,0.07546630079680626,0.005029442362637497,9.737416956951444,0.6568322907433991,-0.15969318127733048,-0.11610816124105194,0.0,0.0,0.0
0.646,0.043047134194967154,-0.020216846986612233,9.790384260206656,-0.040343836922649506,-0.3367472564093343,-0.7035151805235844,0.0,0.0,0.0
0.648,-0.03336316418108621,0.0312584556886073,9.828607241086923,0.054409081483845,-0.10270422073067578,-0.23695677637373358,0.0,0.0,0.0
0.65,0.06687235903381408,-0.012250093951288408,9.787241503087829,-0.8624938653213922,-0.325011957153464,-1.2419781143470758,0.0,0.0,0.0
0.652,-0.0289030753107196,-0.03409588257083009,9.783446829377137,0.5790533274166391,-0.45815507894497964,-0.4029506725402473,0.0,0.0,0.0
0.654,-0.03718845823843875,0.013055908795871703,9.843612458736839,0.5414539518220315,0.006582697714256641,-0.0827309394490689,0.0,0.0,0.0
0.656,-0.007573915248246302,0.028357999658109027,9.833630634375396,-0.33744864842962935,-0.15787947195651228,0.3137437359866973,0.0,0.0,0.0
0.658,-0.002946105068043761,-0.004958487750407766,9.809459241260813,0.12978669093597137,-1.0592752185343044,-0.3675643740278147,0.0,0.0,0.0
0.66,-0.0006144579072705006,0.0057264375954964334,9.829202593287814,0.33595340712259286,-0.3602801442507284,0.16969710043920028,0.0,0.0,0.0
0.662,-0.013065356161023056,-0.01907769566065306,9.843840150116211,0.26339545402396936,-0.7756180512495369,-0.5953420367366028,0.0,0.0,0.0
0.664,0.03380477478865208,0.062443741916685044,9.833346883690005,0.7041407285138601,0.24704495269213603,0.30841572838233433,0.0,0.0,0.0
0.666,0.0014727518476192222,-0.010317102684051718,9.808774637911258,0.9108231138478254,-0.11470820941009159,0.180055671320859,0.0,0.0,0.0
0.668,-0.04801615750152948,0.03934115966620731,9.78424995411963,0.08606753434449808,-0.21470246034119614,0.15159707647423445,0.0,0.0,0.0
0.67,-0.0025907469647159895,-0.012484115293432537,9.789620152991798,0.19338432429133035,-0.20937374243118476,-0.23879945518605397,0.0,0.0,0.0
0.672,0.027085974846533044,-0.035126940357273144,9.76583689107405,-0.1000575809991719,0.241589161279413,-0.48299177642444874,0.0,0.0,0.0
0.674,0.025808519600638295,-0.015225920693791885,9.81795337441125,-0.6227520856823235,0.16181058986772923,-0.5674309546060796,0.0,0.0,0.0
0.676,0.00970229023778277,-0.037154748663200794,9.793697457738846,0.2609088518770996,0.34637857749636036,-0.0918965423332989,0.0,0.0,0.0
0.678,-0.006084732962800382,0.004677913531417292,9.805864488927021,-0.07805576187785654,0.15453256922533748,-0.30937828329232714,0.0,0.0,0.0
0.68,-0.004267854189534395,-0.0037762632624296724,9.780901353391117,-0.4470556351109617,-0.3614880963778907,-0.3625840757072401,0.0,0.0,0.0
0.682,0.020270562262256347,0.017458823105436436,9.813181613255376,0.3147567761470547,-0.7396092517305328,-0.21054174917131693,0.0,0.0,0.0
0.684,-0.01007353523088368,-0.061528001579242035,9.817195636157033,0.06992137743034281,0.6238151730325154,-0.04285325585723944,0.0,0.0,0.0
0.686,-0.04071069857352687,0.020827884553181995,9.758738948580449,0.24235455595592706,-0.02505674372058839,0.4524830271430188,0.0,0.0,0.0
0.6880000000000001,-0.009637351305139461,0.01387244378385433,9.808970774218164,-0.9976783926143277,0.33252988684093593,0.5967442213820511,0.0,0.0,0.0
0.6900000000000001,0.004243524747745533,-0.04326580462155347,9.821133716433078,0.46271750483435786,0.15123777182646336,0.46574604122357743,0.0,0.0,0.0
0.6920000000000001,-0.05802784135685916,-0.004817227510177215,9.834169465888376,0.25107025772219477,0.3241283148128724,-0.6944161790066786,0.0,0.0,0.0
0.6940000000000001,0.04406752254825008,0.00043391372232121837,9.80872591201906,0.031585669389596394,0.24548763201109294,-0.350168030452564,0.0,0.0,0.0
0.6960000000000001,0.03224936858715649,-0.0050801563511392745,9.827213657372203,-0.02697939115133757,-0.17245254701330495,0.09213168233402423,0.0,0.0,0.0
0.6980000000000001,0.012797945669598505,-0.002496849829996834,9.82609823532092,-0.45104095567076885,-0.7218791908889478,0.5022853346791246,0.0,0.0,0.0
0.7000000000000001,0.006008347172989249,0.025317109099717735,9.792206471942434,0.815517568361918,-0.4589276460106908,-0.20931254096694202,0.0,0.0,0.0
0.7020000000000001,-0.036332031970375024,0.01331813531615058,9.790843281608579,-0.48118810755602176,-0.5258748662491826,-0.8216892191923691,0.0,0.0,0.0
0.704,0.034034438477020014,0.05728425929316671,9.834234688641414,0.23538040781356,0.12018884946362055,-1.190839911734437,0.0,0.0,0.0
0.706,-0.05723310338113822,0.015177591806950937,9.789809668503548,-0.22471698703243842,-0.1882377930701209,-0.1535474533057679,0.0,0.0,0.0
0.708,-0.001054225436459719,0.058410314145798184,9.786420604344613,0.128070774098676,0.673039956048962,0.32092097454712293,0.0,0.0,0.0
0.71,-0.03625456200791169,-0.02489634792591871,9.801045007908064,-0.2946355459217918,-0.29980586176850205,0.27515303389753093,0.0,0.0,0.0
0.712,-0.021363331609386225,0.010028304835927595,9.778546385580146,0.26869163875499985,-0.1315173169769655,0.20971617176581833,0.0,0.0,0.0
0.714,0.002922348965714467,-0.004036094609395529,9.79704296015372,0.1441300416916712,0.09342464078798886,0.2934778181127732,0.0,0.0,0.0
0.716,-0.00658353545294209,0.029514666737771686,9.825250258182912,0.5580872058407104,-0.8099544331765639,0.7758108347539948,0.0,0.0,0.0
0.718,0.061411384440062146,0.0012599715020576584,9.800400850189247,0.38923786984072134,-1.2400933104503744,0.43190697800892325,0.0,0.0,0.0
0.72,-0.005032711659821318,-0.04200939248659241,9.865756679135334,0.2339483141819735,0.2655231389160103,0.6627406679025998,0.0,0.0,0.0
0.722,-0.004569628067670798,-0.03397784979684149,9.80792166978523,-0.04448145804155305,-0.5095382021908005,0.46002791243716695,0.0,0.0,0.0
0.724,-0.0422930462284196,0.016161055083620163,9.82026416208814,-0.4453466667496982,0.6276076464677232,0.3048766284125365,0.0,0.0,0.0
0.726,-0.06688312454011033,-0.07482931754451493,9.848252500514597,-0.051644605111590025,0.03939420556709227,0.007485783658648185,0.0,0.0,0.0
0.728,-0.043826666063337634,0.003153358754770125,9.793295673887217,0.16530424042294517,-0.11786689620911601,0.5818711529548056,0.0,0.0,0.0
0.73,-0.02467201167353818,0.02017876310745736,9.809648460655445,0.07087254234244038,0.20606424804256185,-0.7099309501200423,0.0,0.0,0.0
0.732,0.05790188421581637,-0.025243326307704293,9.811098771229576,0.48698353324170784,-0.30650581500827456,0.13408739828313365,0.0,0.0,0.0
0.734,0.016238315104053172,0.008361336013253243,9.814021339737451,0.4126423874508039,0.16160561630601739,0.05462481376503935,0.0,0.0,0.0
0.736,-0.04732258319912247,0.040065404226913695,9.767618358697742,-0.8943563027062095,-0.2744009159086037,-0.0007860085452441042,0.0,0.0,0.0
0.738,-0.0038426186926119777,0.07297513016669714,9.783934016079357,0.1935648312273594,-0.5589808641727926,0.436621984001048,0.0,0.0,0.0
0.74,-0.03743011821773507,0.019144706508416855,9.79641663643907,-0.028189964284950776,-0.13266967744500496,0.9390097271769096,0.0,0.0,0.0
0.742,0.023267614027696667,0.021102089906861743,9.765268330760213,-0.14144201223413316,0.2886403658465914,0.010360312239768509,0.0,0.0,0.0
0.744,0.009973582541397753,0.01558851410894155,9.759104253462022,0.143923100813506,0.8522561541874707,0.43632737787720866,0.0,0.0,0.0
0.746,-0.03178197416569447,-0.029482737188930797,9.802591023680511,-0.48124398417588415,-0.4422014432768905,-0.09881851652411759,0.0,0.0,0.0
0.748,-0.029793431193542632,0.014818119635212445,9.818287027833815,0.261640991689404,-0.3350425027714673,0.3965003881495771,0.0,0.0,0.0
0.75,0.04453279183564475,-0.004189001701145251,9.847348827228977,0.4513665269778726,0.5469693310411681,-0.1115183701190693,0.0,0.0,0.0
0.752,0.013175094959945705,0.023613062398093482,9.813915875936772,-0.09275832197978388,0.8420639072893478,0.41476569262025664,0.0,0.0,0.0
0.754,0.017487514026306036,-0.04364364682588069,9.794350841033134,-0.37881486044217344,1.0097787415963009,0.5245873145441099,0.0,0.0,0.0
0.756,0.01669232734427181,0.05168796016652801,9.836038940726471,0.010001388059832922,-0.1458460196744284,0.7342727496941203,0.0,0.0,0.0
0.758,0.002506019501227001,-0.004563405077964316,9.838900207231362,1.0465199713453925,-0.25539976778391227,0.2743420067952397,0.0,0.0,0.0
0.76,-0.023191188532971124,0.008363829676282235,9.809437154599955,0.053144789277947926,-0.7273085443813744,0.4427110545897223,0.0,0.0,0.0
0.762,0.029314625270788944,0.08492487172518919,9.795675757690647,-0.35512981416925715,0.15487183359632312,-0.12717793214864537,0.0,0.0,0.0
0.764,-0.006219093364961471,0.02666150760163161,9.838066127659602,-0.1967115233507628,-0.8942368436785904,-0.3127550501478771,0.0,0.0,0.0
0.766,-0.011749839860276565,-0.003910078348995991,9.791851322807197,-0.04348405298063876,-0.14266511105083768,0.6471557487357515,0.0,0.0,0.0
0.768,-0.025819625774377034,0.0016617941434839965,9.785393157793507,-0.34728100382452926,1.058662922782104,0.1454356294180004,0.0,0.0,0.0
0.77,0.06185340621899341,0.002892011404036814,9.817197839303057,-0.35841232628601066,-0.11074576964810932,0.030251440939306963,0.0,0.0,0.0
0.772,0.02925633758919434,-0.04521530266087751,9.798575381690684,0.4340124377341754,0.59249126472959,0.2070723160079958,0.0,0.0,0.0
0.774,-0.018925598511487583,0.0048355407051456295,9.810998470257957,0.197868331735558,-0.4815050952885869,-0.5743307784922659,0.0,0.0,0.0
0.776,-0.030209611358317894,0.006299682755675832,9.795892690006218,-0.03661653602373029,1.2116006512684687,0.33091098194187185,0.0,0.0,0.0
0.778,0.015473931261683867,-0.04561815722912634,9.806624388539786,0.7805763763675015,-0.5593874370471917,0.60673589209042,0.0,0.0,0.0
0.78,-0.03133891293829724,0.0057493822664095,9.775316306635746,-0.17293213663552703,-0.26669794619282583,0.27548813689344404,0.0,0.0,0.0
0.782,0.01437573449396348,0.05165641369592261,9.758881818233448,0.2935429285891348,-0.49675949989328333,0.7786663863599471,0.0,0.0,0.0
0.784,-0.02369262801031802,0.011733243954284147,9.838282026564492,-0.7307727579738603,0.739830464475662,0.05876101469695668,0.0,0.0,0.0
0.786,-0.026890486494411944,0.031240899827621484,9.810624555658402,-0.4144627687074383,-0.05073097144475168,0.9932433083009057,0.0,0.0,0.0
0.788,0.0514621245536713,-0.02341358791964816,9.839637145544065,0.46088452134277497,0.7732393314168562,0.8691231334877499,0.0,0.0,0.0
0.79,-0.028873152131918888,-0.009319787808997998,9.799168972968316,-1.1811017965915471,0.045399597189709574,0.4503051155926294,0.0,0.0,0.0
0.792,0.027198161967768506,-0.007257050933907291,9.788042691567874,0.10780286317782367,-0.5824436268370248,-1.4404686150780326,0.0,0.0,0.0
0.794,0.011433197223240961,0.006958569726325395,9.811582335787296,-0.5981164221315589,0.034407821415247716,1.0902745306953636,0.0,0.0,0.0
0.796,0.02962465970907677,-0.06404518814498021,9.791212441057537,-0.027418365894380695,0.10683539703653044,0.33140564163440556,0.0,0.0,0.0
0.798,-0.006123143904591437,-0.0359191639537613,9.786648549122656,-0.03851112945687372,-1.0544597571482186,0.3624292549461643,0.0,0.0,0.0
0.8,-0.024465516448961076,-0.0481071082766339,9.787115328251515,-0.3059710488557695,-0.26513835628579274,-0.7135095235366473,0.0,0.0,0.0
0.802,0.021615509204587192,0.004500945974061363,9.862869752826015,-0.55253127398429,-0.2944466050157397,0.03483635440344134,0.0,0.0,0.0
0.804,0.021399913721493947,-0.02692004725598867,9.77401812080582,0.0047877178200867706,-0.06799113812757958,0.03031940080223278,0.0,0.0,0.0
0.806,0.019556610795672915,-0.01269747895039004,9.785490686784112,-0.5830021029145687,0.13040704309242554,-0.24471173417169642,0.0,0.0,0.0
0.808,-0.06360690806354219,-0.013958357909113723,9.831809407197566,0.7752767067153227,0.38277963319018404,0.08246037733399947,0.0,0.0,0.0
0.81,-0.014873785563796128,0.008536540628061822,9.794577333712878,-0.07911297849141419,-1.9489278949305877,-0.015521296493116633,0.0,0.0,0.0
0.812,-0.03194236448510662,0.027990693440293583,9.87779653172506,0.17354558711815266,-0.46629692572769527,0.28189167190825853,0.0,0.0,0.0
0.8140000000000001,0.029581859660671846,0.009390469003445355,9.839225173164474,-0.6869735615768933,0.5111243471542379,-0.29030333745715026,0.0,0.0,0.0
0.8160000000000001,0.01315370641574558,-0.02729482204279355,9.82790621834845,-0.7718197388735832,0.21300748879376372,-0.6196194931087255,0.0,0.0,0.0
0.8180000000000001,0.01913862914396493,-0.022014668674276344,9.763412000694307,-0.04817404294075129,0.14810191209026266,0.20440401490879725,0.0,0.0,0.0
0.8200000000000001,-0.04402578617258185,-0.031762625378081936,9.79734633578665,0.46357080336659734,-0.21509998205437966,1.0317831881258692,0.0,0.0,0.0
0.8220000000000001,-0.03261334694960287,0.02465983680378494,9.786833497584482,0.6892848399701178,1.427324704764795,-0.27416936300580674,0.0,0.0,0.0
0.8240000000000001,-0.012562003767404979,0.022667108545357726,9.808387270444022,0.1830982199034153,-0.46980531517895285,-0.1620217632684613,0.0,0.0,0.0
0.8260000000000001,-0.04169249641333036,-0.016575208983894467,9.780774615780107,0.0651717349374477,0.1482557361629284,-0.46016276581921023,0.0,0.0,0.0
0.8280000000000001,0.00546767781297641,-0.019878162911883282,9.760842315999783,0.13560139709039332,-1.0570874711085123,-0.013187277231849497,0.0,0.0,0.0
0.8300000000000001,-0.020332949240490512,-0.000281916613884354,9.805761483680328,0.15720056930880655,-0.05948359969319123,-0.03131524059143155,0.0,0.0,0.0
0.8320000000000001,0.00564281670433661,0.10377462735913758,9.839765737581294,-0.20122403049701573,-0.3269716520473935,-0.051239257688579926,0.0,0.0,0.0
0.834,-0.03770490409065302,0.01788872835322777,9.82457953589242,-0.14281900300048705,0.04490637027070253,0.2863342999906042,0.0,0.0,0.0
0.836,-0.009958782610580343,0.016797257287139003,9.80384299110742,0.5694122401740813,0.7908342345204449,0.49179806362650075,0.0,0.0,0.0
0.838,-0.027460877970261005,-0.018826431205095834,9.821168545760912,0.19164609669723506,1.3705649761060708,-0.05198682466706967,0.0,0.0,0.0
0.84,0.041776251841351,0.008297936389547053,9.828248752356883,0.45828629807463617,-0.0367396404259657,-0.02553973400900484,0.0,0.0,0.0
0.842,0.0007524096968661812,-0.004167958168516797,9.764393444573274,-0.7792005821090092,0.13966949802712697,-0.4992392878671788,0.0,0.0,0.0
0.844,0.002244053971024931,-0.051831436512034694,9.815289558065988,-0.12031530200466994,-0.3193342935212351,0.7828521418072629,0.0,0.0,0.0
0.846,0.053516154655849156,0.04016335402676212,9.80850443879856,-0.2869042370760711,0.05952829912632946,0.6084960287595484,0.0,0.0,0.0
0.848,0.013521783135008123,-0.008778124582836989,9.783653439549166,-0.41844142985333177,-0.3744810368605627,0.1753896036266182,0.0,0.0,0.0
0.85,0.06240212891092709,-0.026584848717762913,9.79193099986169,0.3111447378459436,0.05703670114643394,-0.32620859558674986,0.0,0.0,0.0
0.852,0.03181967024188102,0.018941373750611123,9.81145044069757,0.13780245627815643,0.36160036691428654,0.08184874764000444,0.0,0.0,0.0
0.854,-0.012048985963751176,-0.08147550175295853,9.818743849510355,0.08725313163905411,0.4497376610880529,0.24958652507788867,0.0,0.0,0.0
0.856,-0.013054570844910157,-0.023331926500551475,9.798966701944009,-0.1472716705409514,-0.2696922438068241,0.04572318561468001,0.0,0.0,0.0
0.858,-0.03745633734635202,-0.016724398023057047,9.768038427708401,0.04633292881139342,0.38196919688686726,-0.968651619982179,0.0,0.0,0.0
0.86,0.00026068752784226404,0.03706314075670302,9.81112563720933,-0.3860641621198979,-0.06339363770428992,0.19200489387850975,0.0,0.0,0.0
0.862,-0.011185457643596778,-0.006377959452743286,9.812648984266778,-0.6816210736386077,-0.5426913100001541,0.1898803530823847,0.0,0.0,0.0
0.864,0.019265165038537868,-0.009793363121256086,9.828123288963031,0.5917036816113075,0.33832711414369065,-0.2643048514529207,0.0,0.0,0.0
0.866,0.009233881524238348,0.03192757421918486,9.84253428076512,-0.8374432897063072,0.42532723353298746,-0.34205452617243914,0.0,0.0,0.0
0.868,0.013473609849510002,0.007993026220480327,9.816534735797092,-0.3445059954336224,-0.11721186721990616,1.3758464768188614,0.0,0.0,0.0
0.87,-0.024686892012725694,-0.06155527098002771,9.804612656333735,0.2624921575864177,-0.8052322846253317,-1.200103989340521,0.0,0.0,0.0
0.872,0.038748426879764326,0.029962950404055663,9.809225978597551,0.2420418270899154,-0.24963586104389276,-0.21453810956056693,0.0,0.0,0.0
0.874,-0.011583991121101454,0.0015389626772261287,9.83768967348022,0.8225144694458582,0.10660540240804471,0.540721671111445,0.0,0.0,0.0
0.876,0.03963768760749531,-0.0743803471814455,9.817053227790266,-0.735780985948061,-0.08672087125519133,0.16512865358106057,0.0,0.0,0.0
0.878,0.02043771346439498,0.008415457269283536,9.77669108806678,-0.1419443875673789,0.1447060332073626,-1.050365161299485,0.0,0.0,0.0
0.88,-0.027935664260882138,-0.004642704866377696,9.808179245554323,0.9717385892343415,-0.07168784273420171,-0.16746257323284433,0.0,0.0,0.0
0.882,-0.004789258045537119,-0.023684847892766623,9.77860658226941,0.35460367121465847,0.00038595446540824556,0.10100930631380092,0.0,0.0,0.0
0.884,-0.023477798024690234,0.018842870459959155,9.83065020942931,0.018338035114034458,-1.7848161480498639,-0.7473906182741661,0.0,0.0,0.0
0.886,0.012232066653880264,0.0271126291494841,9.771654268850295,-0.6096457967956229,-0.5894386393029252,-0.6654035222972778,0.0,0.0,0.0
0.888,-0.006333788339898081,0.022081903176531678,9.774491653411163,-0.7250260922829935,-0.569106117953453,0.3684577313221401,0.0,0.0,0.0
0.89,-0.023234190381229952,-0.03473331286570405,9.81613121384287,-0.7911111238262193,0.18246544286457403,0.3893775752994715,0.0,0.0,0.0
0.892,-0.05993964949142438,0.006641227847724835,9.81740872156134,-0.5646123713234211,-0.08565946524467674,-0.2507631965226481,0.0,0.0,0.0
0.894,-0.0016734380281938708,-0.0026723474549544585,9.831443482983682,0.1492136878968542,0.009500543499473955,0.021023038846851135,0.0,0.0,0.0
0.896,0.02334337971727268,0.016434389631338645,9.821194972415444,-0.5757775680192414,-0.054865262586941695,0.7235747327698141,0.0,0.0,0.0
0.898,-0.004326993227643126,-0.05826530275721448,9.830299186915063,-0.1915935900607585,0.7323893201293193,0.6328127408269452,0.0,0.0,0.0
0.9,-0.004795121936742607,-0.014599333704211619,9.769941941324886,0.3077388389133688,-0.6080465020061631,0.5903036967279092,0.0,0.0,0.0
0.902,-0.018411357671158247,0.04776886708281644,9.792696268867433,-0.13818528294345223,-0.23135519934416202,0.2502058804356971,0.0,0.0,0.0
0.904,0.0445923206680632,-0.011855793561131598,9.847456842396701,-0.09749500096480555,0.7590084501249837,-0.4967670939202609,0.0,0.0,0.0
0.906,-0.004741718991588706,0.015482274983772573,9.815894596999417,-1.1327881946720244,-0.08988397845558828,-0.8174153800292304,0.0,0.0,0.0
0.908,0.03992626400466259,0.01670068565602899,9.807284953513207,-0.16557078145295215,-0.4276353771981442,0.3134514651472705,0.0,0.0,0.0
0.91,0.015428186998379893,0.01472716981557504,9.818146739719928,-0.43147465539902147,-0.4197993015300095,0.15469603489021602,0.0,0.0,0.0
0.912,-0.008632810914748087,-0.013221248045335192,9.828715706363433,-0.44212961705521775,-0.10565526112411702,0.9135534226932912,0.0,0.0,0.0
0.914,0.033494707992237666,-0.00418622828896873,9.810995359801378,-1.036437578058371,0.11384436454384775,0.1244279183082744,0.0,0.0,0.0
0.916,0.013284066314129948,0.07792918483577489,9.786008402123787,0.21241684593426616,0.04798912684487065,-0.01576755162121896,0.0,0.0,0.0
0.918,-0.045992620078493376,-0.05959819323117447,9.765698890337774,-0.33842271010783254,0.5166108965112153,0.6092404742508176,0.0,0.0,0.0
0.92,-0.020143683967589286,-0.05157219761848013,9.828492440336419,0.2129683612826374,0.2005257632178747,-0.208365516444907,0.0,0.0,0.0
0.922,0.034850697733053694,0.028523495052558606,9.793784864451029,0.7427604016641648,-0.020741244598943193,0.3611093769467735,0.0,0.0,0.0
0.924,0.0004119145315061162,-0.024367462409774145,9.836872351868017,-0.5815009597096871,-0.40753034781840575,0.06813167989483443,0.0,0.0,0.0
0.926,0.04392711531626576,0.03514383667763235,9.82538415260646,0.2848631993816169,0.2581592370431888,0.1781887705098666,0.0,0.0,0.0
0.928,-0.01533775461670562,-0.0037296228735279,9.810034400400047,0.8935179822739049,-0.3617322643599373,-0.40917819300132646,0.0,0.0,0.0
0.93,-0.005025036180139772,-0.0287535928985319,9.778829444969407,-0.6964663852802376,0.8467766649109144,-0.32687029686001273,0.0,0.0,0.0
0.932,-0.014390985652847979,-0.008059701721516419,9.805771905953657,-0.06701865249945668,-0.40117866055368745,0.7546965321301906,0.0,0.0,0.0
0.934,-0.0037663640179882605,-0.03144724265748269,9.879581760084577,-0.14986522159065052,0.038068198329216874,-0.9827512192813666,0.0,0.0,0.0
0.936,-0.004395062544672943,0.03167148760215398,9.776005921532114,-0.27816961458203404,0.4602423905940337,0.241361217112719,0.0,0.0,0.0
0.938,0.005738975538385043,-0.010850458042712601,9.871712148223315,0.10844966353130879,-0.0374134584238546,-0.5920570394283965,0.0,0.0,0.0
0.94,-0.07771484769810406,-0.002654919610976179,9.771621917119287,-0.21454316997586112,-0.5149607503588094,0.19044174605954875,0.0,0.0,0.0
0.942,0.012588069646523314,0.09635903856806147,9.759242848335015,0.2581486423066826,0.6317896882182494,0.28154074077907776,0.0,0.0,0.0
0.944,-0.0026012444398741973,-0.013165050840267447,9.786004388505692,0.13277981639559575,-0.02974961183287305,0.37793958144248996,0.0,0.0,0.0
0.946,-0.025636706800773044,0.020097480303900152,9.797935113226123,0.13973977792577147,1.2725957394253724,-1.7218673564066742,0.0,0.0,0.0
0.948,-0.027030985374341763,-0.011234521980456748,9.833977161644304,0.07539626275085264,-0.7264956254441471,-1.0826912341499786,0.0,0.0,0.0
0.95,0.011699072220760496,-0.009145867504070775,9.831659047113897,0.1290877177383613,-0.9644013407557546,0.6667412967226497,0.0,0.0,0.0
0.952,0.08132643657745386,-0.018243317116538333,9.78577856412967,-0.034862699815557854,-0.005788119067023393,-0.13015756473878579,0.0,0.0,0.0
0.954,-0.018099526248261173,0.04264665956570849,9.766938652762546,0.8368062015955049,0.29987715610440835,-0.017562814063510165,0.0,0.0,0.0
0.956,0.01960369975070359,-0.04994237397302125,9.853372361971077,-0.37286830164271345,0.004364752700082734,-0.9255896475917432,0.0,0.0,0.0
0.958,-0.03039478170561221,0.012908588166570808,9.821136143765905,0.7215317061395615,-0.45791928687645306,0.2387759437321328,0.0,0.0,0.0
0.96,-0.03174806270321086,0.036321472831326064,9.806361958074737,-0.059979159475161005,0.744817903771892,0.495816137399273,0.0,0.0,0.0
0.962,0.0027414824394540994,0.014703978841583648,9.782236749934837,0.2799234958681456,-0.6799641959330169,0.17118731035750384,0.0,0.0,0.0
0.964,0.0002801018673030648,0.06362926261397632,9.828228740602052,-0.10235016310945241,-0.10466535394895331,-0.17522333666611808,0.0,0.0,0.0
0.966,0.04967193472058914,-0.010282491140217145,9.857804995863951,-0.2341163523080307,1.2558604575862031,0.4274466477959618,0.0,0.0,0.0
0.968,-0.026127633756365717,0.023578647042987323,9.771712892698071,-0.24932526171587316,0.4837832862523824,-0.07091172704554434,0.0,0.0,0.0
0.97,-0.002902598905095385,-0.028739754034625142,9.810284758761172,0.30150074832728857,-0.6887884729720061,0.19724715476114765,0.0,0.0,0.0
0.972,0.026248857317045442,0.051487135814962705,9.807421332058894,0.339323647490778,0.15601976955509794,0.353640455970989,0.0,0.0,0.0
0.974,0.010646011139233786,-0.058489975867465904,9.80910076856431,0.3271881282269268,-0.7186257214878741,-0.6695906520162976,0.0,0.0,0.0
0.976,0.022772494930974184,0.017235065059801387,9.819157705373673,0.09953522951701758,-0.3278035389339224,-0.38679740661714074,0.0,0.0,0.0
0.978,0.0369116231757878,-0.023341848379862543,9.846897195302839,0.031619961817809294,-0.2584501961435627,0.652789039854436,0.0,0.0,0.0
0.98,0.013267560594907317,-0.009291008513438613,9.793275458622121,-0.01260683198158088,-0.49268555226089567,-0.2637657776009244,0.0,0.0,0.0
0.982,0.048627408345189825,-0.029156077883492035,9.796161619054601,-0.16481564593803283,-0.7483404907464596,0.2465098725508802,0.0,0.0,0.0
0.984,0.011144030041639403,-0.002839028078420748,9.805291554413774,-0.6423648368859943,0.16368916738222866,0.15233125691404717,0.0,0.0,0.0
0.986,-0.005476655759938719,-0.007517857083837343,9.790900668144225,-0.3341778053984845,-0.49223456919588365,-0.022145504279547243,0.0,0.0,0.0
0.988,0.003130612647893919,0.014848536212685799,9.831492825174095,0.3929733293528282,-0.28956954427846876,0.2622593209402314,0.0,0.0,0.0
0.99,-0.013734673149431099,-0.003780860399990944,9.787466275294458,0.3918650350725998,0.3537436444439193,-0.39586512755415926,0.0,0.0,0.0
0.992,-0.03749145518370737,-0.019698945965946044,9.828203691575219,-0.11418457144356839,0.31108515709743434,-0.34223678897880155,0.0,0.0,0.0
0.994,-0.0040154836196100606,-0.009703238980916315,9.807035943635626,-1.41977854807315,0.040739510614830034,-0.5149791097839421,0.0,0.0,0.0
0.996,0.0025366994923753487,-0.017762270834617757,9.825215549720552,0.35289703227191727,-0.8551323443486768,0.44966243708842707,0.0,0.0,0.0
0.998,-0.009927834158322872,0.013220553876759885,9.86298772429977,-0.5851628410014234,-0.5075111985828316,-0.039306747379741,0.0,0.0,0.0
1.0,0.012679392026164776,0.011251845765582871,9.842948507282948,0.1763630498119558,0.3950128371613991,0.4180373966798111,0.0,0.0,0.0
1.002,0.012259483731823638,-0.01642199724657304,9.842107058259321,0.19258082121552916,-0.034623900537520735,-0.17330232050838912,0.0,0.0,0.0
1.004,-0.008164322403629978,0.04323285902645508,9.80151318920957,-0.15309957890940076,-1.2961284682694902,0.004326653770238158,0.0,0.0,0.0
1.006,0.026350557875255896,0.004470172165274161,9.75614437744145,0.6059733173868526,-0.7621600294958603,0.129888268147239,0.0,0.0,0.0
1.008,-0.010622219311719392,-0.006342686347872007,9.851922954565737,0.20306684804912092,-0.6169174231658505,-0.054478201961914316,0.0,0.0,0.0
1.01,-0.009956800836060258,-0.0510991980805574,9.796228317727232,-0.19568031215577245,0.3099537319665461,0.4230260859933474,0.0,0.0,0.0
1.012,-0.0021826555089420247,-0.03611901247287415,9.83375708231652,-0.5244358287638182,-0.015853327466704276,0.365084796016466,0.0,0.0,0.0
1.014,0.0069244860422156395,0.014294104673278664,9.809052995677096,-0.26806137693830684,-0.00032398778271100145,-0.001639112567260734,0.0,0.0,0.0
1.016,-0.0331208969586287,0.03639855681741532,9.814571050092967,0.1082488431903287,-0.29359667702628894,0.11506397553528838,0.0,0.0,0.0
1.018,-0.024137399625128196,0.03225985081605781,9.808429590091274,0.2323758243146126,0.5600023090224278,-0.13130670459848864,0.0,0.0,0.0
1.02,-0.010431547819767599,0.04608797905850322,9.784607301867007,0.14012643560655957,1.0063851921046574,0.4501248004692357,0.0,0.0,0.0
1.022,-0.06099570953000154,0.00950246868339305,9.844610744419722,0.6139949758408866,-0.01722893063708649,0.1990290748392563,0.0,0.0,0.0
1.024,0.005695792226983384,-0.03661100864815147,9.758497224462127,-0.3821009633520654,-0.7889448475146558,0.39953739306960057,0.0,0.0,0.0
1.026,-0.023597198101831175,-0.006370100193647728,9.78750362138693,-0.8978110170566523,-0.0809334627295698,-0.2702095196478999,0.0,0.0,0.0
1.028,0.022621318805266497,-0.025280384617606372,9.81402304376006,0.47335122304335736,0.10149879826804249,0.5059188231294925,0.0,0.0,0.0
1.03,-0.009592893227273924,0.01255121569265802,9.785818519194063,0.27878455551248865,0.2544785673196988,-0.23428085355576114,0.0,0.0,0.0
1.032,0.06023480323148373,-0.022374014889783838,9.752280841241474,0.18121966208295537,0.05034794809222103,0.2270381756665249,0.0,0.0,0.0
1.034,0.0061514844333142955,-0.011292676080917653,9.783788393013602,-0.06654221329619302,-0.2617368812179707,-0.5000671355037815,0.0,0.0,0.0
1.036,-0.03295368504292526,0.050108313098661206,9.755793280100532,-0.16461077980722508,-1.027907398365876,-0.40201631798659443,0.0,0.0,0.0
1.038,0.007771217982075196,0.04143148267338151,9.817861675760094,-0.26902155858275223,0.46787775937525816,-0.1958580872379487,0.0,0.0,0.0
1.04,0.038927824465520774,0.03845169622815816,9.812759676386168,-0.4566058136121149,0.5774755324288714,0.0962589124172114,0.0,0.0,0.0
1.042,-0.040567660622641,0.047830685101623915,9.824591923645045,-0.2159968052582503,0.3371320058640903,-0.5007870084796774,0.0,0.0,0.0
1.044,0.030329327259259912,0.03951238072459166,9.874034572534653,0.07481501385971341,-0.5944405085878973,0.4338946449821889,0.0,0.0,0.0
1.046,-0.00669683700069173,0.006717280792987956,9.854895413128338,0.47372238868392486,0.4488987309308532,-0.1744669015647005,0.0,0.0,0.0
1.048,0.013577161439949187,0.03277791366589495,9.841176448464864,0.4271332021130143,0.9638507485628186,-0.5560792124035744,0.0,0.0,0.0
1.05,-0.010809783966323741,0.017120441903147255,9.800589131513622,-0.5107346921577526,-0.7307360337175574,0.1438506969256499,0.0,0.0,0.0
1.052,-0.015224418063851726,0.02018438956289598,9.848627215941672,-0.8960298084048391,0.43265872530413335,-1.0152317128513884,0.0,0.0,0.0
1.054,-0.02766834540811921,0.006966281505387327,9.78314544824603,0.5709831374831247,-0.5283668327018056,-0.33015899943096305,0.0,0.0,0.0
1.056,-0.006679098403872509,0.03580310277279067,9.804635983644829,-1.0191888507614644,0.0066348542564076025,0.988525673332647,0.0,0.0,0.0
1.058,-0.02857113597828053,-0.027234128498015882,9.888033478230653,0.49233576317650757,-0.4111610225963475,-0.6602486368981418,0.0,0.0,0.0
1.06,-0.036558223815424076,0.05313267918864061,9.776604796420235,0.8011067604314518,0.41074610927448163,0.1767867928067731,0.0,0.0,0.0
1.062,-0.03769556698656921,-0.05055751346546025,9.803894352461956,-0.022578513506817912,-0.28020636401934773,0.052792308129615995,0.0,0.0,0.0
1.064,-0.022330653463133107,0.030035486465806838,9.776128445485158,0.7433926609349034,-0.26880946664837696,0.006206549998280675,0.0,0.0,0.0
1.066,0.024274901216263814,-0.040889056572419466,9.8395224187897,-0.5948351552190168,-0.5932472021238318,0.26245649874980165,0.0,0.0,0.0
1.068,-0.03652571067018962,-0.029834273297505823,9.784970127645998,-0.1553424380989635,0.6072223142481075,-0.08966628262009521,0.0,0.0,0.0
1.07,0.025752271148964022,0.03736789348708394,9.822653488743716,0.840845265942968,0.15040926693718512,0.323951792840226,0.0,0.0,0.0
1.072,0.007692200399205757,0.008950854892707296,9.819956748233318,0.6667688250785189,-0.1416148114014171,-0.09036045328403308,0.0,0.0,0.0
1.074,0.014070530776527129,-0.03394466652501422,9.822505784923003,0.7126190065301705,-0.09638444205098691,-0.03515737472224865,0.0,0.0,0.0
1.076,0.01563651017110906,0.011411928592625504,9.77928658724597,0.24543577200958352,0.05660808654302985,0.041899751485216935,0.0,0.0,0.0
1.078,-0.018592207436064195,-0.017402882460747764,9.824418976529525,-0.15605888751776023,-0.5638691005029915,0.005151000371384638,0.0,0.0,0.0
1.08,0.046981896538937064,-0.008361421532854628,9.783806535020926,-0.12936283794867826,0.18283247089484048,0.4109496879790355,0.0,0.0,0.0
1.082,-0.005472587191896079,-0.03006205870398281,9.853845185871732,0.16544135217021344,-0.37413030439409845,0.14401820989900738,0.0,0.0,0.0
1.084,0.027295571913326395,0.0091474888215457,9.794538788022479,-0.5806225983108979,0.7861366233042584,0.5347061360103487,0.0,0.0,0.0
1.086,-0.05841768310293956,-0.012106207388231604,9.816053702990981,-0.04749275302645258,-0.30717264775514636,1.0735914309981958,0.0,0.0,0.0
1.088,-0.03974190417289509,0.012285622388043647,9.829695300779594,0.8722009704868077,-1.1206747780887805,-0.11887440108757175,0.0,0.0,0.0
1.09,-0.01447792847237175,-0.016053466723165686,9.799011556005295,0.02736733478853486,0.23955275876360352,0.6100229785396312,0.0,0.0,0.0
1.092,-0.045573482956959545,0.03367930736410469,9.81426265740975,-0.893402788447777,-0.10636398213813422,0.7382169917490926,0.0,0.0,0.0
1.094,-0.06796478718651854,0.01894340838224303,9.80768704447226,-0.08760424015759143,0.12180930115303051,0.03206430024318136,0.0,0.0,0.0
1.096,0.01654386226983342,-0.026737417447733402,9.791394291870459,-0.09194293611292155,-0.04936565528557213,-0.23693465814888678,0.0,0.0,0.0
1.098,0.006279981588177518,0.04959507371646027,9.787016440511744,0.14883572492459335,0.3293808609661682,0.6614646629969246,0.0,0.0,0.0
1.1,0.039580997645834295,-0.04014268360333272,9.842481188246037,0.5971889119138645,0.3877019041908825,0.3634856492060163,0.0,0.0,0.0
1.102,0.011150765467822699,0.02262211026456211,9.80843430393151,-0.4240772139630196,-0.04865071297819874,-0.15805089995065683,0.0,0.0,0.0
1.104,0.01925515183243798,0.030504240187574232,9.787171830935508,0.11435640903058786,-0.1378713964428912,-0.21054369314405577,0.0,0.0,0.0
1.106,0.03413383641345375,0.004319384810930849,9.800842086927517,-0.5848010919791142,0.8410099355351636,-0.1318242564361541,0.0,0.0,0.0
1.108,-0.0696424313017888,-0.01521677145682518,9.815638368297334,0.6381464986788316,-0.17334749668765265,0.028040534682219634,0.0,0.0,0.0
1.11,-0.009405451516049454,-0.008645421113535725,9.807727264885512,0.8012095322064835,-0.40283096832062354,0.12963990413144363,0.0,0.0,0.0
1.112,0.07476883264930806,0.015166557692087038,9.844428882190773,-0.7159516187712625,0.28233979685551125,-0.642280694490495,0.0,0.0,0.0
1.114,-0.0019353065219945562,0.02886606230099501,9.817321007238384,0.18726160502956052,-0.09365926972349548,0.029554153932650182,0.0,0.0,0.0
1.116,-0.03417748613204028,0.01113135906060241,9.824969311676767,0.37019360050814465,0.6080240082264509,0.21670079832882846,0.0,0.0,0.0
1.118,0.028867110487403425,-0.03431740665313363,9.839458523731551,-0.04298479061193365,0.24085453213663469,0.21418431694403406,0.0,0.0,0.0
1.12,0.008803993451185588,-0.043410283601291316,9.727319154168033,-0.20905518663928666,0.17915769913347662,0.4537734374524055,0.0,0.0,0.0
1.122,-0.04952581984740725,0.019638239292239373,9.831916319560333,-0.46957417827127373,-0.4454375982155498,-0.2259027879685631,0.0,0.0,0.0
1.124,-0.03606946368936371,0.002437575742218411,9.795773506498533,-0.059342007245570455,0.2869412616089629,0.2309998008103068,0.0,0.0,0.0
1.126,0.050832096171880455,0.02668247812628321,9.781333658444602,-0.10452368765544788,-0.27808531050020074,0.42458204895137297,0.0,0.0,0.0
1.128,0.025645151232600298,0.010023186305400228,9.896422240563698,-0.18132788178551307,0.47792331134501365,0.20771341327953155,0.0,0.0,0.0
1.13,0.028721903670244603,-0.02834993999358939,9.835598056235186,0.32625442740946653,-0.8232678574377619,0.7486202372825225,0.0,0.0,0.0
1.132,0.07337555192212546,-0.0017654774481331158,9.821273883961046,0.37520250908784675,1.1385370226732257,0.3034159779316285,0.0,0.0,0.0
1.134,-0.0015498718394777514,0.00035630015215210037,9.864865767397793,-0.31572886791351534,0.19073656271216774,0.5308792708802103,0.0,0.0,0.0
1.136,0.006926539366514871,-0.004826158407563339,9.849434065567593,0.2201410407850391,0.12085839690943716,-0.5264007164336364,0.0,0.0,0.0
1.138,-0.024845171904533968,-0.014491432915280263,9.792322639300332,0.3228278153437861,-0.2208834585527338,0.2998037080918658,0.0,0.0,0.0
1.14,0.05196983083375717,-0.0018206252206662474,9.817585145866206,-0.1731211994134685,0.28032533461813675,-0.25999504422543496,0.0,0.0,0.0
1.142,0.0030905061411067515,-0.015478467995381526,9.823196773155697,-1.3371039852843807,0.20055794148750983,-0.2359271932952063,0.0,0.0,0.0
1.144,-0.005973004110486535,0.011307391145302851,9.83814966304196,-1.117510759787853,-0.5491267683708239,0.6664938454470181,0.0,0.0,0.0
1.146,0.04701350780179066,-0.031457585410419805,9.832805486264915,0.36239332499460214,-0.653829903048977,-0.08031616415326652,0.0,0.0,0.0
1.148,0.03477678864843878,-0.021681543934361083,9.827991879195679,0.11479755951820383,-0.5387761977919522,-0.27662706863428654,0.0,0.0,0.0
1.15,-0.009511365008722654,0.02574341981508749,9.828257366514825,0.31029140324403504,-0.9093977194876866,-0.18654680542117785,0.0,0.0,0.0
1.152,-0.03529143838497268,0.012587234235450377,9.831780855321776,0.0007835918434875673,0.8359181244831517,0.517746855615101,0.0,0.0,0.0
1.154,-0.012521722653037316,0.027056409708897736,9.78724204528068,0.8138786873212357,0.15278890050302563,0.48279786810880965,0.0,0.0,0.0
1.156,-0.008626889179298602,0.021444123538485772,9.829527225375873,0.17012147214364992,-0.20908704778599382,-0.919475436405474,0.0,0.0,0.0
1.158,-0.005648533088888634,0.01196252489112808,9.796921389994912,0.09349818483567973,0.1516136304027171,0.1922636350215439,0.0,0.0,0.0
1.16,0.007946386740026307,0.0467261439458033,9.869040382044114,-0.27460060603189174,0.6343290443925265,-0.18465159600539824,0.0,0.0,0.0
1.162,-0.05627157080938476,-0.02344586610901059,9.755037071834332,-0.323560471666185,-0.7226481126649607,-0.7386914158396108,0.0,0.0,0.0
1.164,0.014611446431853815,0.020480478073724887,9.792813596943272,-0.555398335188423,0.40448065129933686,0.05710397290172745,0.0,0.0,0.0
1.166,0.007903726291678738,-0.037029697319842785,9.79505075932976,-0.2280676023716927,-0.3717100906377722,-0.5083417562732754,0.0,0.0,0.0
1.168,0.05792203758589765,0.025689324910540025,9.81487944240441,0.6664659723248492,-0.41817951641942414,-0.7250370136812472,0.0,0.0,0.0
1.17,0.0318040582205557,-0.006890651890223506,9.86555866606958,0.4183782517089518,-0.5835602673310097,0.6125335458316935,0.0,0.0,0.0
1.172,-0.022315558893622647,0.0142009216934944,9.760831928335081,-0.07680397315865765,1.1272036717198435,0.20233234336026823,0.0,0.0,0.0
1.174,0.02250022428335965,0.01657967688041308,9.77087202969374,-0.5275381649484585,-0.07187636508810961,-0.3638038844736628,0.0,0.0,0.0
1.176,-0.020377574186417124,-0.04546292918592038,9.842496434079598,-0.19057411228324353,0.651977387259522,1.1823986662021286,0.0,0.0,0.0
1.178,-0.03950940720480038,0.04817756507613587,9.801033321582707,0.4891001147678774,-0.644448515263893,0.5796285305406972,0.0,0.0,0.0
1.18,0.02259582060845816,-0.0016043698243479176,9.800725297763448,-0.16051959470595648,-0.2937267555116046,-0.18433672848517912,0.0,0.0,0.0
1.182,0.00895734548044181,-0.015230174812156296,9.792981694383725,-0.37093695449982833,-0.7104877722150275,0.0934838812500436,0.0,0.0,0.0
1.184,0.0651452967116848,0.05898366270953941,9.821192575135361,0.3880315023938265,0.4599411643247902,0.2969672327008003,0.0,0.0,0.0
1.186,0.001298531199800091,0.05103041763425455,9.806353072288449,-0.15220698102200564,-0.024470155383263872,-0.1347594933851517,0.0,0.0,0.0
1.188,-0.014766254686277505,0.006740266318579546,9.804696993439991,-0.24232001956092683,0.21274377151811563,-0.2112209497871069,0.0,0.0,0.0
1.19,0.021870768798274726,0.056365026467538215,9.795615850555368,-0.5711426345010479,-1.1519590451957786,-0.5250132809146062,0.0,0.0,0.0
1.192,-0.019179650595305738,-0.022410652729963853,9.813856881036827,-0.46979688746099263,0.2274258690513237,-0.287530660294064,0.0,0.0,0.0
1.194,0.03295920037613061,-0.02378235022292005,9.825692029917594,0.05236938986486246,0.03571701782207547,-0.09689538847651505,0.0,0.0,0.0
1.196,0.017527979576460767,-0.029964140268568227,9.820584292220548,0.8507926527401435,0.6038763409525885,-0.11909498709084634,0.0,0.0,0.0
1.198,-0.017073523268922135,-0.017437390389297314,9.833288259074404,0.17528465041208557,0.33599760403496476,-0.21765498759645252,0.0,0.0,0.0
1.2,0.01098432124798808,0.012771030100796454,9.799029126890458,0.8145504382252355,-0.16620156061474659,0.1969149857876551,0.0,0.0,0.0
1.202,-0.05290592511372019,0.004680612822446188,9.798181571887538,-0.02068003917681198,-0.7939585111502073,-0.22653446512240843,0.0,0.0,0.0
1.204,0.00175382869959542,0.013348859302630337,9.836737332851056,0.1070040101997772,0.40707871152314795,-0.3304255019183611,0.0,0.0,0.0
1.206,-0.018519960931386036,0.015968628265996362,9.833524836317352,0.406450994799282,-0.5286414161584386,0.8612746232516999,0.0,0.0,0.0
1.208,-0.04453396307969188,-0.03480534898998006,9.766775666757223,0.9100325910646813,-0.07225745411215805,0.9041701013239848,0.0,0.0,0.0
1.21,-0.038179222337855964,0.00373247517924107,9.861851854582497,0.07555707618537365,-0.3283915585203557,-0.5281301704013645,0.0,0.0,0.0
1.212,-0.013078847572851098,0.04783614234280484,9.818908050607643,0.13795921579914727,-0.03616116444897461,0.04164536672509415,0.0,0.0,0.0
1.214,-0.0399595073718432,-0.010442802601621785,9.834100565508429,-0.02242888256147732,0.09562215579175473,0.03561562208800434,0.0,0.0,0.0
1.216,-0.04807525023880405,-0.03170201073094927,9.809754092806305,-0.709411866691902,0.06911266703484585,0.009568923546207964,0.0,0.0,0.0
1.218,-0.05129912735157086,0.0003902349927437406,9.83188766146054,-0.34113900004181075,-0.5362605454871369,-0.6607341459702539,0.0,0.0,0.0
1.22,-0.015833023215005158,-0.0015585604330114848,9.795692854895838,-0.11901160794199694,-0.2719797133522619,-0.7152849088784661,0.0,0.0,0.0
1.222,0.044693561547859556,0.011023487550999316,9.816954000262404,0.16541315145331512,0.5475530998319523,0.24887534769022432,0.0,0.0,0.0
1.224,-0.01349087573747096,0.053643724907366706,9.833900362110185,0.050984394363233175,0.9350183267538519,0.07130635702566739,0.0,0.0,0.0
1.226,-0.022190359619699004,-0.00787042423326018,9.828570578428492,-1.1188639723811613,-0.4801877255387488,0.7934744252189556,0.0,0.0,0.0
1.228,-0.02877813961754603,-0.027983312629941953,9.811724293806332,0.7735011545499956,-0.01614970291896409,0.026530875511106153,0.0,0.0,0.0
1.23,0.010803934227559646,-0.011990162516707353,9.847218230185034,0.763255304545536,0.12417600542037541,-0.22647896502974024,0.0,0.0,0.0
1.232,0.016035129359061453,0.01091371411370918,9.788797235337958,-0.14495746258339343,-0.3940384905732463,-0.6456600593792812,0.0,0.0,0.0
1.234,-0.021910503261089894,-0.027162034897104514,9.84444484056898,-0.3165958715551237,-0.6036343295726214,-0.26441661083473866,0.0,0.0,0.0
1.236,-0.015283005009084638,-0.033252471415021086,9.804587075048651,-0.07914278587010454,-0.14494479702894417,0.798311381345389,0.0,0.0,0.0
1.238,-0.038424473135445926,0.0021858939709536625,9.800457132311411,0.3182481664372654,-0.006847626342262615,-0.2860036689496651,0.0,0.0,0.0
1.24,-0.007178260861590709,-0.03865781028409871,9.809255336703448,0.005078918238058389,0.42364276399484097,0.14048184713345416,0.0,0.0,0.0
1.242,0.0463885345033407,0.03485523981238756,9.789751303411677,-0.781143951115682,-0.39374044320564067,0.20122748757675446,0.0,0.0,0.0
1.244,-0.04994722931977525,0.004960123678602827,9.815730398181797,0.37435859352660233,0.43246215130988075,-0.23916026764232684,0.0,0.0,0.0
1.246,-0.03231824809085239,-0.006785537083013032,9.819871778562137,0.5806977289815893,-0.08828797035980991,0.08310326057181756,0.0,0.0,0.0
1.248,-0.0187415686222233,-0.02251152753225992,9.7883574262967,0.2359744406559196,-0.7942526297876676,0.21549559192732337,0.0,0.0,0.0
1.25,-0.011730074468894815,0.0298379052786617,9.822211181264132,0.32140273573095024,0.26414460361956826,-0.2242479613007769,0.0,0.0,0.0
1.252,0.00354828628475763,-0.05702658153197269,9.784230409838854,-0.10422433475100003,-0.2742245998025742,0.20556419638190734,0.0,0.0,0.0
1.254,-0.04222722215010923,-0.019429803632219043,9.773229738133184,-0.4786074750416597,0.9119770417060241,0.7005857410851302,0.0,0.0,0.0
1.256,0.026223199318351067,0.005384387534519614,9.808792507993381,0.3467304524676168,-0.07768308127650489,0.11296103634640829,0.0,0.0,0.0
1.258,-0.029701492312438415,0.020571444144141325,9.82152814779277,0.10442584353160296,-0.4557139108602205,-0.08146763581348346,0.0,0.0,0.0
1.26,0.0455904031211682,0.011704130493219408,9.809756288509439,-0.3928409461880637,0.3952209506170954,-1.437993430889475,0.0,0.0,0.0
1.262,-0.0424678721525108,0.01097106306151414,9.79486311011325,-0.11029455928517962,-0.1607696999961833,0.17588111767265308,0.0,0.0,0.0
1.264,0.002690190545856781,0.06407955170421921,9.820858878023447,0.6302084700384109,-0.5140461190653179,-0.27569577639734094,0.0,0.0,0.0
1.266,0.026240431202805038,0.005857769127890895,9.7597775289226,-0.6588552712906919,0.8483919564323541,-0.2289972317154554,0.0,0.0,0.0
1.268,-0.04945654377102637,0.015559171277559649,9.790199244732218,-0.23553459602063373,-0.19872764443976038,-0.24130449068986617,0.0,0.0,0.0
1.27,-0.00020647147154197732,-0.04028509762910895,9.83249740477265,-0.31933320527084236,-0.1633471815336474,-0.29232151722769745,0.0,0.0,0.0
1.272,-0.019551491000671557,-0.026913149133193412,9.848883050390706,0.2596714891623692,0.4107996437891848,-0.6167807079915649,0.0,0.0,0.0
1.274,0.07204020633873044,0.026878505735283473,9.823582820113264,0.5553405711951304,0.1264377186848207,0.0744830164335269,0.0,0.0,0.0
1.276,-0.012517431641859096,0.01451908386016003,9.83039972537893,0.7606677623355257,-0.48585371684782314,-0.4048815733495812,0.0,0.0,0.0
1.278,0.01413347865034015,0.04085165974411872,9.845836957883835,-0.31176833493330064,-0.376730242663664,0.06022829087470175,0.0,0.0,0.0
1.28,0.010926453566980411,-0.002324272930283917,9.728596531533597,-0.2769837250372671,-0.14430333194472694,0.2933732322942244,0.0,0.0,0.0
1.282,-0.016528348458390362,-0.026476634761623166,9.873981911297014,0.48317879478160747,1.2511035521316767,-0.04364216837140882,0.0,0.0,0.0
1.284,0.03007191378530476,-0.02857105278761221,9.817503823306227,-0.13891937013800668,0.5049228232994424,0.3556973043140309,0.0,0.0,0.0
1.286,-0.06768560547889622,-0.029400614125020364,9.822370018079791,-0.2881016115060405,0.4909717558275337,-0.23257647730660222,0.0,0.0,0.0
1.288,0.0410664858543293,-0.02488293140330888,9.855712680285881,-0.020351461274128773,0.8585162851381352,-0.625428153806311,0.0,0.0,0.0
1.29,-0.017602482257324102,-0.023091659240666553,9.905492027388801,0.741259472917093,0.1387444750994741,-0.7843771163470692,0.0,0.0,0.0
1.292,0.026500561451722016,-0.00782581261039378,9.821988099661034,0.06730937064809028,-1.5356127145707799,-0.8141802848441086,0.0,0.0,0.0
1.294,-0.01350549983201566,0.009577563895988727,9.839272357442178,-0.22717628829006128,-0.43552127225960535,0.9059577463461188,0.0,0.0,0.0
1.296,-0.02670389510249393,0.07405405320688808,9.805429451407427,-0.13176277897964422,0.15990283667601038,0.0016307224159273338,0.0,0.0,0.0
1.298,-0.029451746141913746,0.04277586069423903,9.84319247418078,-0.3175526987160641,-0.2742406877688889,0.5314161229181342,0.0,0.0,0.0
1.3,-0.05315646569399295,-0.014992183148724393,9.794464289179462,-0.8131920848994184,0.018452543866111847,0.11406336821839176,0.0,0.0,0.0
1.302,-0.02523569625628464,-0.044386769446682295,9.87133274238439,0.020375232081623257,0.40943293992587654,-0.5848849814398471,0.0,0.0,0.0
1.304,0.009851160497078617,0.0039045065535238317,9.817743057933018,-0.3325283029132298,0.5145167348059189,0.0025227581980423073,0.0,0.0,0.0
1.306,0.036722325682112165,0.018939716814718233,9.887662378177962,0.44799782815830297,0.319920637128269,-1.2553223023658595,0.0,0.0,0.0
1.308,0.029126274644677434,-0.004121284579076447,9.783705032479578,0.6337226433708822,-0.04842512749613505,1.0578407668137642,0.0,0.0,0.0
1.31,0.0011050525628704066,-0.0655324373925789,9.787317125623057,-0.03492714680321367,0.7523810370262538,-0.14777690125744872,0.0,0.0,0.0
1.312,-0.0046906042589915445,0.045567452414372704,9.806975621173633,0.4737840899846056,-0.009214769229195828,0.6398805688391919,0.0,0.0,0.0
1.314,-0.04449428867627668,0.006487155461325812,9.821818793044788,0.7622096878547824,-0.4816597864222357,0.7603268158979896,0.0,0.0,0.0
1.316,0.016735390923129236,0.020189817337171245,9.798247794262469,-0.1478401362797436,-1.0592301764513348,0.7194109801561535,0.0,0.0,0.0
1.318,-0.005207150526837894,-0.03000363132172441,9.826408223173367,0.04353905941763061,0.12414525895948901,-0.8215253813610603,0.0,0.0,0.0
1.32,0.011791807930147162,-0.07217351888053986,9.81100762194582,-0.5573140323427819,0.1061447561401602,0.31442597487703294,0.0,0.0,0.0
1.322,0.004638987823332799,-0.05879912810944611,9.826657318941272,0.04857970730464726,0.40242302780912803,-0.7022056254849677,0.0,0.0,0.0
1.324,0.03611322499930378,0.05434573937290946,9.781064270911735,-0.2754642922235596,-0.3237196726331376,-0.09204645190215364,0.0,0.0,0.0
1.326,0.0029542182285253174,-0.0011254342165464722,9.77856638239853,-0.29320734264390663,0.4164824313245356,0.13005972305254002,0.0,0.0,0.0
1.328,-0.061058498181031914,0.007140590344689645,9.780334666602911,0.46282828954434846,0.2129022262226035,-0.1925413141674727,0.0,0.0,0.0
1.33,-0.008550120320914135,-0.03974292109668241,9.801770652062565,0.004356045564398655,-0.08141805843688346,-0.17511116242218452,0.0,0.0,0.0
1.332,-0.0014784789207797806,0.02626498550329762,9.751973700795007,-0.2650399883398189,-0.48815773063283696,0.6586800190042811,0.0,0.0,0.0
1.334,-0.006744537200878955,-0.0022977818682235374,9.820298959622543,-0.5460495838180873,-0.4640793727589244,0.012516259571412976,0.0,0.0,0.0
1.336,0.10173356638021293,0.026273320796519926,9.826353899246262,0.5174284488176203,0.2057859755907603,-0.7622490365904822,0.0,0.0,0.0
1.338,0.02058552564418212,-0.0068812003450217235,9.708961596279886,0.5576344801321489,-0.10588166741117536,0.02394665649805613,0.0,0.0,0.0
1.34,-0.017277447930180833,0.0024129276795363643,9.818478850793536,0.09448531155841262,-1.1028473652036335,-0.09107358905181762,0.0,0.0,0.0
1.342,0.029974619676155667,-0.04266509414683205,9.770041389297003,0.46288327384846273,0.0674325047278036,0.045610186077633154,0.0,0.0,0.0
1.344,-0.004590361696090282,-0.005943287545914553,9.772886484225637,0.06988051020499941,0.25050869570105677,-0.7694115806937677,0.0,0.0,0.0
1.346,-0.0466858733222519,0.02090506456665744,9.807503994098324,0.39487584934618164,0.46943456667831274,-0.2587143197801392,0.0,0.0,0.0
1.348,-0.030409742860796833,-0.020250458473508,9.787559889680328,-0.011517228598435271,-0.2434159952634381,-0.3262736827638097,0.0,0.0,0.0
1.35,-0.06267596426439886,0.03456169467289899,9.749617836045948,-0.32093400543496425,0.15216966783209354,0.7328600679603164,0.0,0.0,0.0
1.352,-0.011492305095572261,-0.02076300939372705,9.81261913716311,0.4556911986265831,-0.5136774822186411,-0.19872855646563928,0.0,0.0,0.0
1.354,0.016898626574759382,-0.039621735292378904,9.790142057046973,0.14972360306113786,-0.46998690523484793,0.20085477840489108,0.0,0.0,0.0
1.356,-0.031051063148527243,0.015524020063285463,9.799775391623623,0.22550799942491412,0.9969324233927666,0.7901603093035533,0.0,0.0,0.0
1.358,0.024409443593429656,0.008153715218365049,9.8185906600864,0.38834395038543357,-0.20441173761220358,0.3778666824219359,0.0,0.0,0.0
1.36,-0.011772041957377834,0.041210605435255336,9.838955036748475,-0.2766485135484384,-0.04699294156262887,0.021476148614045783,0.0,0.0,0.0
1.362,0.025167724442025925,-0.013670752483914079,9.801299502353519,0.20510761407533162,0.5243990176292105,0.37823701421803396,0.0,0.0,0.0
1.364,-0.02883376485129342,-0.0071136305658857785,9.800488345448501,-0.33991318641816315,-0.02602312990716216,-0.4834342585444117,0.0,0.0,0.0
1.366,-0.036821941198018876,-0.019010470734827315,9.804223429543974,0.3581024946726075,-0.35446819806479724,0.9450988705201998,0.0,0.0,0.0
1.368,-0.02465640623292143,-0.06724321184208208,9.792084643842738,0.42423495744644807,0.0105342063237139,-0.0632647959917277,0.0,0.0,0.0
1.37,0.04872072881049563,-0.017773962629203402,9.795797165465313,0.18667956037170408,-0.6956269981060363,0.16773103750452975,0.0,0.0,0.0
1.372,-0.018938296505450335,0.004557135660781853,9.798290409516696,-0.5269877558453057,-0.2142532824382131,-0.7699118115596526,0.0,0.0,0.0
1.374,-0.02244393409119645,-0.011171624973122027,9.78841498887619,0.2205699596593756,0.3612766597588173,0.444839873287542,0.0,0.0,0.0
1.376,0.024264865139544525,0.0467934186288008,9.872525431730361,0.698536382402285,-0.6539804527669111,-0.11348289933473339,0.0,0.0,0.0
1.378,0.002069493412001922,-0.04974542223713034,9.771583942793171,0.0646449721082834,0.416100531390852,0.4483449171357753,0.0,0.0,0.0
1.38,0.042853288795148915,0.006286361533810529,9.729616852790034,-0.5750891944861871,-0.6840211455793593,-0.5139402882642965,0.0,0.0,0.0
1.382,-0.038007479713735505,0.0034830196148823832,9.825442462007537,-0.18628084142765383,-0.17511202513299642,0.31799738973885167,0.0,0.0,0.0
1.384,-0.042429774393362436,0.020721553894152735,9.773501501596455,0.11539298698829392,0.19784887691528247,0.14541252670292665,0.0,0.0,0.0
1.386,-0.003310770754161055,-0.005517351734674271,9.775390021399708,-0.06137700622120985,0.49749426465965363,-0.05322552023087653,0.0,0.0,0.0
1.388,-0.01357016772188766,-0.025995125870301523,9.80917354856425,0.40294499961556274,1.10033411136636,0.6420140640960972,0.0,0.0,0.0
1.39,0.025271798415980026,0.04181476199398521,9.765286077194908,0.402786996105572,-0.2682962668164046,-0.21619817870650385,0.0,0.0,0.0
1.392,-0.009026396626088562,-0.018805465220285436,9.83206328897389,1.2333543320278013,-0.42758528263918644,0.40406728586091595,0.0,0.0,0.0
1.394,0.0007923827067228732,-0.023968826353490284,9.833057572177616,0.21552635855366345,0.541792714861234,-0.05003525123515183,0.0,0.0,0.0
1.396,-0.00970940107797997,-0.025377217193930306,9.854584676315797,0.1622017280560618,-0.5902608733051187,-0.6023759585859482,0.0,0.0,0.0
1.398,0.011129847374416604,0.002961050807470878,9.851468884023538,0.3157554373854828,-0.2649868409674971,-0.21175305195545036,0.0,0.0,0.0
1.4,-0.018222180131313343,0.021857562016579093,9.800928736012875,-0.23885589592175155,0.18139214220522668,-0.693901805589274,0.0,0.0,0.0
1.402,-0.046226411002713165,-0.06000560903262626,9.852176809083716,0.12641953425567065,-0.9508068135572093,-0.22868452291174796,0.0,0.0,0.0
1.404,-0.008012976714277167,-0.04384549182486101,9.791610700623396,-0.1876918318901158,-0.3667811909027945,0.3653808065747906,0.0,0.0,0.0
1.406,-0.046339284827118535,0.05763657013871588,9.828687402554191,0.3168801743184325,0.6120492256396955,-0.5507663144129687,0.0,0.0,0.0
1.408,-0.043249706231655076,-0.02959329142382732,9.823416732475517,-0.08405770899797853,0.47458462699767756,-0.5045633161422514,0.0,0.0,0.0
1.41,0.05757407211254577,0.04440609314238901,9.821326415404457,-0.6188599765452718,-0.2810620556750665,0.02137354368578258,0.0,0.0,0.0
1.412,-0.025514474805908346,0.007391284619368198,9.827231491747062,0.32398900541453507,-0.19551333924131772,0.44510611769932934,0.0,0.0,0.0
1.414,0.04084326787665361,0.012372206441496367,9.807054236407884,-0.4572257271596193,-0.05699186326969591,0.8262226060487968,0.0,0.0,0.0
1.416,-0.03569082570208512,0.02841401547359269,9.809341920686975,-1.2686545762038912,1.4032941661120104,0.07270057654006834,0.0,0.0,0.0
1.418,0.035764655105246464,0.04400374574434877,9.80285476792949,-0.6011792662615311,0.05967384139277819,0.48073668191640534,0.0,0.0,0.0
1.42,-0.007667483924895403,0.03482801795847668,9.765797386001527,0.05873158457524602,0.30696256746247774,1.1566437146680966,0.0,0.0,0.0
1.422,0.009150666789151857,0.04659399533859322,9.830123182675823,0.30020505084500954,0.4571865017535459,0.05645649159189865,0.0,0.0,0.0
1.424,0.03174283958196066,0.0076545881335202135,9.819809313556746,-0.20136482076786993,0.25486873141630423,0.5876528395540179,0.0,0.0,0.0
1.426,-0.006576959588667139,0.013756929816319721,9.784980117470166,0.642070720218723,0.2961423800779766,0.2626905947320877,0.0,0.0,0.0
1.428,0.03509513046013761,-0.0032691762999852705,9.814888886425718,-0.37857688091360564,0.4665798065002126,-0.5998983812191762,0.0,0.0,0.0
1.43,0.02259100799316854,0.0002564028811935343,9.812347011047503,-0.3260342800871085,0.6001270848852107,0.10471056490742084,0.0,0.0,0.0
1.432,0.04027393075709486,0.01465893821207827,9.846225969074498,0.36875849419332285,-0.2962896124790037,-0.7728550216717655,0.0,0.0,0.0
1.434,0.021867160883176032,0.03498141329624188,9.778874235678643,-0.554058250365886,0.3088887709405707,-0.4055539491591509,0.0,0.0,0.0
1.436,-0.009561996638840902,-0.0032760463921852525,9.824589446312736,-0.853854688933674,0.06837558649508324,-0.17606022830457066,0.0,0.0,0.0
1.438,-0.04068701523507358,0.01618662946261975,9.822774403444482,0.9093731853079698,0.3843173323834472,0.43595025145201827,0.0,0.0,0.0
1.44,0.027647249951160913,0.0254359590626873,9.842002689579337,0.45740686648862877,-0.3214936224358741,0.08718444261582904,0.0,0.0,0.0
1.442,0.0333434543668641,-0.014105630531208608,9.798374745249774,0.1866751934007854,-0.23291597929853963,0.5259083509992791,0.0,0.0,0.0
1.444,0.022716511809972726,0.027267295413195784,9.835659371582551,0.6556213480878219,0.13680166731637505,0.4224379499613686,0.0,0.0,0.0
1.446,0.0001933200370375602,0.03283865440456229,9.809829457592805,-0.1131050855170571,0.5407128344708066,0.08139407107210428,0.0,0.0,0.0
1.448,0.00534532143747862,-0.0673409939296597,9.746798285759155,0.36908512544592614,0.03663066048031904,-0.2537020271766121,0.0,0.0,0.0
1.45,-0.006458437885299929,-0.01000380468278078,9.827520762497725,-0.7142645264202976,-0.19919764831001366,0.1881116014069509,0.0,0.0,0.0
1.452,0.02039239221066776,0.007916582061549793,9.751589928735171,-0.0640675576782369,0.1932586585786003,0.3393215573119792,0.0,0.0,0.0
1.454,-0.005410409875739611,0.03388891672872014,9.818251756922583,0.4660115804362717,0.15651224520718496,0.608403159096029,0.0,0.0,0.0
1.456,-0.0009067056324839703,0.07144467010394057,9.822899752688388,0.42339653590471693,0.9671379761299591,0.42669638968625706,0.0,0.0,0.0
1.458,-0.022291923607310384,0.002498020483563132,9.796078696565425,0.6160137738793553,0.01947478534115766,-0.01996679819644742,0.0,0.0,0.0
1.46,-0.02238676910617101,-0.056790970811691474,9.822002556734224,-0.43345584539288146,-0.27332916141221214,-0.15871040410318007,0.0,0.0,0.0
1.462,-0.031443409531532525,0.04408454044352855,9.839339301983022,-0.4348768528389041,-0.5125208632138769,0.265333235315164,0.0,0.0,0.0
1.464,-0.011642881251295098,-0.03647220692866189,9.819480799204436,-0.19017168805613924,-0.013224329604422902,-0.2565318098066383,0.0,0.0,0.0
1.466,-0.06953663405540383,-0.02882786550862397,9.807125823214182,-0.1323666658289904,0.24052627429068926,0.1706408322101399,0.0,0.0,0.0
1.468,-0.0104695565174858,0.014957002456253556,9.813035364408643,-0.16554560586774483,0.11557467405538964,-0.09447527953389992,0.0,0.0,0.0
1.47,-0.007210343724912259,0.012319362236040455,9.791893240208577,-0.497846462473507,1.32768893792505,-0.6099885685679126,0.0,0.0,0.0
1.472,-0.0742358788557768,-0.005698103768113232,9.805933797378101,-0.5738536812145187,0.15772436497216696,-0.3231885421184601,0.0,0.0,0.0
1.474,0.059241809470129254,-0.012329668536811642,9.796196544371762,0.22052811250580967,-0.9447562097150893,0.43791210777922845,0.0,0.0,0.0
1.476,-0.02733519752548798,0.032556819061181935,9.810379507627234,0.32255729353615137,0.1672164039976157,-0.19531806282107203,0.0,0.0,0.0
1.478,0.010147226229277228,-0.04625438821711075,9.784586031261039,-0.6491520285646546,0.8815296643130769,-0.15736122741642825,0.0,0.0,0.0
1.48,-0.003524174065974932,0.060741646668984926,9.844294971854282,0.21019081333887962,-0.48264189599364116,0.4613601626010936,0.0,0.0,0.0
1.482,-0.017524551426198486,-0.013318446378619094,9.815792439762932,0.30193921021238684,-0.8477344253245683,-0.1399625683941263,0.0,0.0,0.0
1.484,-0.009936016011975484,0.015513367793718558,9.77273346732939,-0.5818041376725764,0.03482762363170676,0.05251571905987416,0.0,0.0,0.0
1.486,0.05108379650463912,-0.0039076350440333685,9.811372641562393,-0.8797372564154736,-0.2680290253337809,-1.0718683064754333,0.0,0.0,0.0
1.488,-0.03282881208409425,0.01132939676950437,9.83848881776622,-0.04724960627073687,0.701620353433492,0.6066593742624024,0.0,0.0,0.0
1.49,-0.012089602317763846,-0.01175244660443799,9.773816566365213,0.5701267664030939,0.4939138756572831,0.32611756915321605,0.0,0.0,0.0
1.492,0.04414305078843329,0.036779922115544296,9.80059421763751,1.2085764735876128,0.7510132763393171,0.6708035040710367,0.0,0.0,0.0
1.494,-0.005592286967432357,0.012977230256973808,9.759014122035115,-0.9425021118303112,0.20991813454665453,-0.5048036996318882,0.0,0.0,0.0
1.496,-0.059882360009405465,-0.008676248680568278,9.769692650005549,0.35560860035375313,0.010181045441647722,0.02244776969568324,0.0,0.0,0.0
1.498,0.007241589048653065,-0.0541601920780316,9.821579400325417,0.50323389836686,-0.05140346457719539,-0.008719001748919744,0.0,0.0,0.0
1.5,-0.02168462453784224,-0.05330142759973865,9.825604068374577,0.12223195107171533,-0.19034755132079287,-0.3928872393655996,0.0,0.0,0.0
1.502,0.0028013937612289116,-0.02755995036311199,9.761536492531055,0.40064315857177224,-0.10212317772689314,-0.4266007873384738,0.0,0.0,0.0
1.504,-0.023082336482523932,-0.02378610095960422,9.849577042963983,0.34094432726374896,0.41010251812655124,0.13690752320240873,0.0,0.0,0.0
1.506,-0.01913311194404556,0.0009995766371920802,9.832639512912374,-0.216918482986311,0.7764870768700867,-0.018071467594742253,0.0,0.0,0.0
1.508,0.0018224446617721604,0.0002479846534065918,9.829962273387524,0.7124895140495745,-0.28643794949245416,0.1557085978220768,0.0,0.0,0.0
1.51,0.01110846615124417,-0.003937077233064359,9.80210413609304,0.3636874982472319,-0.30157932330634385,-0.09466982163953244,0.0,0.0,0.0
1.512,-0.008286523320281725,-0.03518252397414673,9.801522738356265,-0.46378672655919506,0.3630951368926958,-0.36248059646089575,0.0,0.0,0.0
1.514,0.02468803708446943,-0.015524126060640143,9.782959461426449,-0.8930276037004693,1.1169693776592444,-0.09690572925384786,0.0,0.0,0.0
1.516,-0.023570022625826786,-0.006135406044128892,9.805822407922347,0.5635075685880331,-0.7191055249554276,0.1934434573949922,0.0,0.0,0.0
1.518,-0.015009784254340823,-0.027710982429977642,9.7885435245099,-0.1711175993540326,-0.11932268495820784,0.15022770488924064,0.0,0.0,0.0
1.52,0.023632191186868982,-0.045591441681508485,9.812446256879088,0.31403268605016604,0.16561970574072407,0.8604957171248009,0.0,0.0,0.0
1.522,0.0186433905702201,-0.005361068862235144,9.830822472571166,0.9248767216012929,0.522408646653347,-0.4916892454082413,0.0,0.0,0.0
1.524,0.019543122802192236,-0.020951290943432118,9.847640529468583,0.28487713676949694,0.34997555059918684,-0.0231880357355556,0.0,0.0,0.0
1.526,0.047942334420164434,0.026648746144436943,9.75767509238879,0.19643213800594492,0.6322447107577776,0.7094892656560244,0.0,0.0,0.0
1.528,-0.06333900338277319,-0.041861551935701034,9.809250217659079,0.6045205121756713,0.5814741533235122,0.1102172453433204,0.0,0.0,0.0
1.53,-0.011496603927694169,0.01440034356242703,9.82888824288109,-0.2605757889513295,-0.0753691828235154,-0.6422634565987823,0.0,0.0,0.0
1.532,0.030916105805589504,0.027471819888397645,9.81142760247162,0.3745582533704554,-0.12372646068348882,0.2881658309169784,0.0,0.0,0.0
1.534,-0.012197676041465854,0.009114913116504008,9.825822794323836,0.6796468249217849,0.059221113265793865,0.3329681731613344,0.0,0.0,0.0
1.536,-0.027512602356866835,-0.015470952084084642,9.85332390767182,-0.14381370344141092,-0.4686984670721862,-0.19180704563903253,0.0,0.0,0.0
1.538,0.01476674238312171,0.023256495505570688,9.850526988155417,0.02201668341111744,-0.19903924812178217,0.6458639407704944,0.0,0.0,0.0
1.54,-0.04842762412180778,-0.012963990027522599,9.806725251409173,-0.22661455607645406,0.48321112680231226,0.5808461963388648,0.0,0.0,0.0
1.542,0.036732557512373996,0.05184273180721185,9.820822739277386,0.6112547320941144,-1.033275947425202,-0.6411589976346657,0.0,0.0,0.0
1.544,-0.05020766252878664,-0.007409103022527465,9.818426870013726,-0.12504494949461065,0.4631257353182095,0.2346708316579387,0.0,0.0,0.0
1.546,0.042322621101495775,0.02378374073501143,9.830391018191634,-0.7007225901755304,-0.10314383800156601,-0.7650952625249998,0.0,0.0,0.0
1.548,-0.009864727145683108,0.008796740958551782,9.780376553189665,0.09260723811903863,0.0812729216600504,0.07843850004638392,0.0,0.0,0.0
1.55,-0.0046055120660659105,0.012552541969564072,9.841396071883766,0.0474150691202781,-0.07039309992765612,-0.19291860105753475,0.0,0.0,0.0
1.552,-0.04775938437289942,0.004594452706386588,9.801544772666162,0.15934927929603002,-0.09066912096724918,-0.4784320990692324,0.0,0.0,0.0
1.554,-0.010239406767046431,-0.065049693068858,9.813773202047974,-0.11609711669524324,0.3433263477115401,-0.362380642051981,0.0,0.0,0.0
1.556,0.0279937886996498,0.03293642566451125,9.769497065914805,0.9352963888857869,-0.9960387233898417,-1.190359845279349,0.0,0.0,0.0
1.558,-0.009157592595998404,-0.03737463824048277,9.84681120469301,0.5452543942245711,0.021110820484203895,-0.6505529928841821,0.0,0.0,0.0
1.56,-0.04094278296466003,-0.04731369602875285,9.7743566567873,-0.33108249311947213,0.3550977472326645,1.4461941754774952,0.0,0.0,0.0
1.562,-0.025853898142523906,0.04723253780645739,9.80412368564681,0.5797992222854879,-0.6802629355606995,0.30163227285759214,0.0,0.0,0.0
1.564,-0.01735245453723626,0.06569073493480819,9.777040916059356,-0.8773088343743598,0.1972986424255467,0.07059039498302888,0.0,0.0,0.0
1.566,-0.020907240097564752,0.0038682342033413797,9.829536798016024,0.5770834894141351,0.4153795905306208,0.05189113844177643,0.0,0.0,0.0
1.568,-0.03053344535820328,-0.011784064717401238,9.850389857108503,-0.4930014337286575,-0.41977173557302555,0.24874147522667986,0.0,0.0,0.0
1.57,0.014676577056100966,0.013558850947769412,9.838389769132027,-0.747025915089343,-1.0722668749484374,-0.02507473986659134,0.0,0.0,0.0
1.572,0.024258223126202696,-0.03020645053320582,9.844414583838532,-0.47735191172570207,1.063328172764809,-0.13621851961993675,0.0,0.0,0.0
1.574,-0.024866040268312694,-0.009227164851767564,9.720975558903048,0.33406709839959603,0.515917411366299,0.17157833199019304,0.0,0.0,0.0
1.576,0.02931844003439183,-0.011692970058747617,9.80452040652468,0.5572077643177978,0.34202757277610935,-0.7660445419390345,0.0,0.0,0.0
1.578,0.025974198794809392,0.0038087299708572083,9.826310080943077,0.33731126962141267,0.776773160905472,-0.0019081646286122432,0.0,0.0,0.0
1.58,0.05330946724666532,-0.026936312450822036,9.802802255368569,0.7168059153163909,-0.4050904860997654,0.05100968205594308,0.0,0.0,0.0
1.582,-0.0018707074530857513,-0.04996844342250529,9.815502649825483,-0.12739417723735974,-0.41574738014038776,-0.6674748586668624,0.0,0.0,0.0
1.584,-0.02062843988226591,-0.016685848172039792,9.840914067391068,-0.42661423900886464,-0.18181475420387444,0.9303227313354246,0.0,0.0,0.0
1.586,-0.017712536578998597,0.03931784327456039,9.769933382116594,0.4645367864177687,-0.17063869922057526,-0.6968510570507562,0.0,0.0,0.0
1.588,0.022652544195823958,-0.022355969055555428,9.800542218689097,0.028823415105424237,-0.9653384975741013,0.7252719163713623,0.0,0.0,0.0
1.59,0.028111050926711494,-0.057454418405304866,9.834028113985354,-0.43387780338621174,-1.026696370921615,0.04457596998698299,0.0,0.0,0.0
1.592,-0.005405285532350367,-0.035481906736852926,9.814819968461585,0.6345244919862106,-0.9671914967447529,-0.06374606080595108,0.0,0.0,0.0
1.594,0.010754853177944715,0.026903080656955392,9.790918863828706,-0.7881817544299216,-0.4802600911752169,0.5143719702836845,0.0,0.0,0.0
1.596,0.0010951507051762278,0.03223221397629543,9.798138469451615,-0.1509269791818731,-0.635696692497628,-0.24516269892924084,0.0,0.0,0.0
1.598,0.01900578621885762,-0.04454140822427666,9.814078681875282,-0.31814374863635425,-0.2687256782240637,-0.8105202903807582,0.0,0.0,0.0
1.6,-0.03684704453400255,0.04945074420695943,9.82887536852187,-0.701017732669679,-0.15514337147875693,0.002933024866626063,0.0,0.0,0.0
1.602,-0.022646204221918858,-0.06341039727610079,9.830088001576716,-0.7115366705905319,0.044222942109595244,0.39884290878589634,0.0,0.0,0.0
1.604,0.04603086281459968,-0.01573414817859204,9.788388473781941,0.4780392949117991,0.007700297917043231,0.14408086185144486,0.0,0.0,0.0
1.606,-0.018438727699875937,-0.008589904113892233,9.831971724115776,-0.5698012566508168,0.6662948419948288,-0.037674610908360225,0.0,0.0,0.0
1.608,-0.03423198095178265,-0.01664291951762789,9.847054009330643,-0.14017713180776112,0.3102123769667879,-0.6992961271449118,0.0,0.0,0.0
1.61,-0.01408339854821949,0.028069736275125864,9.80947952000279,-0.28688538254893114,0.3763442388382677,-0.1345418904493185,0.0,0.0,0.0
1.612,-0.06079184557268763,0.009007284689559575,9.747574217243772,0.4668895080802569,-0.529126857803719,-0.07680125674344476,0.0,0.0,0.0
1.614,0.019985993089192217,0.031034963056515354,9.740898005202673,0.07316037898769473,0.8546911549402224,0.029201827341822716,0.0,0.0,0.0
1.616,0.005472209187133318,0.04210452184764826,9.800870032748472,0.22344822225017918,-0.7851878262234004,0.031589140166296194,0.0,0.0,0.0
1.618,0.041519929267079904,-0.016577885893186577,9.799344800294355,-0.2980325445991976,0.7028935379298963,-0.020137991096877382,0.0,0.0,0.0
1.62,0.029018211400438896,0.00034706296276425735,9.804025280905334,-0.4933218170677856,0.0994877830759169,0.06506477406599395,0.0,0.0,0.0
1.622,-0.05844453473594542,-0.011311417215682679,9.761704063169358,-0.3097853812735017,0.6478086686305358,0.14730208937976466,0.0,0.0,0.0
1.624,-0.04623332005676535,-0.014474200413994338,9.728302814825616,-1.8345357706880803,0.5832085497327497,-0.39681402833906815,0.0,0.0,0.0
1.626,-0.002695142813931481,0.030662042094626377,9.806259557931064,-0.7479003207491572,0.13192519066065223,0.5525856796336893,0.0,0.0,0.0
1.628,-0.007131919224531481,-0.03467759281917434,9.826370803219074,1.0229826012468761,0.27144342991109477,-0.2128565203162787,0.0,0.0,0.0
1.63,-0.025791977786318972,0.04425586060035453,9.785127031626105,0.14417853247404858,0.7011953480261407,-0.38222284441627347,0.0,0.0,0.0
1.632,-0.028858845671583064,0.03364515727063078,9.834960132416228,-0.5954038037729962,-0.30065302571101593,0.809761772857004,0.0,0.0,0.0
1.634,-0.0007181205458550057,0.014586583499712001,9.826101663999209,-0.11867904530428486,0.6588421377654478,0.7565882418296355,0.0,0.0,0.0
1.636,0.00642368176013926,0.0018011712828020887,9.813131937097225,0.5676745193910848,-0.29451976440268096,-0.09791850341647981,0.0,0.0,0.0
1.638,-0.010012571486820892,-0.05085874113740731,9.803619947493871,0.14944436391522342,0.15271976844405602,0.2128251228167104,0.0,0.0,0.0
1.64,0.005904439757469816,0.011659803072965495,9.824505644452362,0.05495221061079343,-0.2929742828285371,0.07651012365864356,0.0,0.0,0.0
1.642,-0.027945151333189863,0.013273061154146622,9.767676092000656,0.39964126487212603,-0.5378667382567969,0.23155418317458412,0.0,0.0,0.0
1.644,0.010182745397501055,-0.03358611555088489,9.840433652251503,-0.002832077898543271,0.8959775601033234,0.4289485777467638,0.0,0.0,0.0
1.646,0.024642109866798833,0.008223247450197063,9.8178030661625,-0.21959459678269105,1.1605814264013152,0.210555508912454,0.0,0.0,0.0
1.648,0.005591960475787328,-0.020434282875319655,9.73056948019934,-0.28396461435544534,0.15697736097859163,-0.150808083518944,0.0,0.0,0.0
1.65,-0.02135848259826011,0.0283261651943861,9.768545760690138,0.173157374138945,-0.21050818596679102,0.1834513165945669,0.0,0.0,0.0
1.652,0.020248447086396067,-0.025781218667180604,9.813448700690653,0.4714353442087952,0.4638759658017433,-0.5651867217733081,0.0,0.0,0.0
1.654,-0.019969843218287025,0.07191357770022402,9.822451195166606,0.8448435712766414,0.14569128026978215,0.0651433164837162,0.0,0.0,0.0
1.656,0.012316784409596397,0.014285616363026148,9.808962956611031,-0.2217885291598724,-0.021500926917611237,-0.20290379431033695,0.0,0.0,0.0
1.658,0.04095258787046511,0.021068720548151655,9.889420530452606,-1.0860787295457293,-0.1811612487034224,-0.4425978448346716,0.0,0.0,0.0
1.66,0.04271728374604548,0.015454483833115292,9.82718673912728,0.23488632311401533,-0.4513135868140605,-0.29887144222789996,0.0,0.0,0.0
1.662,0.031384077337176325,0.01580240619234138,9.837991046373148,-0.8201550052118671,-0.12700461506030702,-0.31318812886688174,0.0,0.0,0.0
1.664,-0.032819042030238756,-0.00135140387806632,9.780518781210409,0.1144527051842978,-0.10616174193183203,0.2185860604051818,0.0,0.0,0.0
1.666,0.003274577910622954,-0.07599100871415795,9.799505989844146,-0.4674799492390314,-0.7168686478132704,0.5392474778879099,0.0,0.0,0.0
1.668,0.010062102517583866,-0.036628512087489774,9.837114945894179,0.40744336200668496,0.14498352669311507,0.640117981770928,0.0,0.0,0.0
1.67,0.017828531795419742,-0.003793331877098683,9.762664034840263,0.1532905196099139,-0.7080577946814948,-0.5321789663672409,0.0,0.0,0.0
1.672,-0.0010536880004075248,0.03651717237271717,9.769273817199835,0.2615444690951519,0.2472040354852058,-0.3284018732156455,0.0,0.0,0.0
1.674,-0.007595510651552144,0.012550974383730736,9.7718054301947,-1.3192862091901487,-1.3525768300593195,0.7378552121356544,0.0,0.0,0.0
1.676,0.00646344563347655,-0.021863527588677427,9.808075689714824,-0.10401943023028719,0.015138466542460786,-0.3006860816316207,0.0,0.0,0.0
1.678,-0.022880148218912176,0.022803548727702988,9.832698756328329,-0.05176384697490926,-0.6053375429327934,-0.39777745514758406,0.0,0.0,0.0
1.68,0.009286461798145353,0.044663687009869016,9.858634352428354,0.21308445314735236,0.8461848856891002,0.22548882021623587,0.0,0.0,0.0
1.682,0.005818953347185445,-0.017861803692092677,9.802816346558087,0.06664178664376272,0.22708458321488736,0.8120282976481111,0.0,0.0,0.0
1.684,0.0010082262542217902,0.021709456118471665,9.807112113503415,-0.013061554489193423,0.008318517417814038,-0.28575480617301385,0.0,0.0,0.0
1.686,-0.07231414313897046,0.03392412510491308,9.852531611800746,-0.3201926721641591,0.25232031623870205,0.07367648494515291,0.0,0.0,0.0
1.688,-0.022533449938864813,0.0610590520487331,9.765177820315326,0.3803488736938733,0.4998009811635341,0.39409376756404074,0.0,0.0,0.0
1.69,0.03482178544981049,-0.01484025650940202,9.810322047078126,-0.08454286258007726,0.07977941023865072,0.07799642823228332,0.0,0.0,0.0
1.692,-0.0459678386869334,0.036268379861472494,9.803630529937923,0.7590862071713337,0.7984209934602243,-0.4430622977325505,0.0,0.0,0.0
1.694,-0.03967708792632029,0.001967101941586558,9.785029072605603,0.09031678007957762,-0.43568861844198825,-0.252254568035273,0.0,0.0,0.0
1.696,0.006967948210484622,-0.0281672880056538,9.755555586356623,-0.45841210930983334,-0.6264147281166298,-0.35735474806548145,0.0,0.0,0.0
1.698,0.038718438294510986,0.0385295572182048,9.836253476081014,0.20160167845848645,-0.7642374216080456,0.22053171356801513,0.0,0.0,0.0
1.7,0.052310820067498785,-0.021360922845310194,9.773265344811964,0.03117374720521144,0.8441331872223821,0.589710337925784,0.0,0.0,0.0
1.702,0.014881806880301057,0.07793495138189656,9.834976424662807,-0.3188626468391394,0.8232454183731749,-0.06963394645107909,0.0,0.0,0.0
1.704,0.030309590499255683,0.04766839710197355,9.806229648007347,-0.0345203660593781,0.7573423263756358,0.3982052076598805,0.0,0.0,0.0
1.706,0.03788813217789494,0.009587162604446652,9.794712536816782,0.1249550288823041,-0.2660666869256721,-0.08429749467557404,0.0,0.0,0.0
1.708,-0.07422103193184902,0.026886537936250968,9.788360640439935,-0.4954845563476304,-0.2657304831659781,-0.3329779315466435,0.0,0.0,0.0
1.71,0.0159007473135277,-0.024260969111189776,9.798544496688834,-0.11040346833830404,0.43926951630032934,-0.9600792797546766,0.0,0.0,0.0
1.712,-0.0027003903400348167,-0.01411675020330956,9.804406911021394,-0.11829016169680572,0.1606045525905984,-0.09436822910555,0.0,0.0,0.0
1.714,0.03279760886637026,-0.0019569207845377794,9.784130543183917,0.19847469254357555,0.46968865352859596,-0.5621919148317417,0.0,0.0,0.0
1.716,-0.0002506988596045738,-0.01982950044019169,9.806868544609037,-0.47154676860239864,0.4556748209058819,0.5049839212771398,0.0,0.0,0.0
1.718,-0.0008544712183715225,-0.009460595620109978,9.827343700581748,-0.39866549375766025,-0.632325352022328,-0.06521202257277989,0.0,0.0,0.0
1.72,-0.05833020037623695,0.01992309111079078,9.821738149179078,-0.07638914185174625,0.1678683844472127,0.17119033297967295,0.0,0.0,0.0
1.722,-0.0005930411286214747,-0.006198993066268524,9.790642667432897,0.06709608905064171,-0.520675141889883,0.7714339321237583,0.0,0.0,0.0
1.724,-0.06463541404529434,-0.024169159217956024,9.860154578571823,-0.1912668765041393,0.3602510690510828,-0.15515028784021442,0.0,0.0,0.0
1.726,0.01877917282601687,-0.028153182054959414,9.815079629521046,-0.181298964871757,-0.1921498886697625,-0.17636535783442045,0.0,0.0,0.0
1.728,0.049052443845753926,-0.0003910666845435902,9.829664535825096,0.1679000763220505,0.03227952112575266,0.05673196504424645,0.0,0.0,0.0
1.73,-0.0035198722208551287,-0.002707677566998644,9.846343014490154,0.012006978333438681,0.45983338290269327,-0.14543527688585925,0.0,0.0,0.0
1.732,0.04204370562374683,-0.025120452500991205,9.833789232764005,-0.33805088042384884,0.6940524629183932,-0.25678132564911393,0.0,0.0,0.0
1.734,0.05284797311934052,0.005890098367864745,9.770496701583722,1.2337766280654967,-0.24063792103990453,-0.9393454037269057,0.0,0.0,0.0
